sub,mvc,ses,task,run,filepath,trial,trial_type,im_num,isStrength,gf_trPer,resp1,resp1RT,auc,auc_prop_targ,auc_rel_mvc,prop_valid_grip_samples,iscorr,resp1_diff,resp2,resp2RT,lure_bin,conf_median,resp2_bin_temp,resp2_bin_0,resp2_bin_1,resp2_bin_med,stimlev_mst
13,14905,1,MSTstudy,1,/content/G/Shareddrives/LC-Aging/Young Adult - Behavioral + Pupillometry Study/Data Collection/metacog YA/subject13_MST_session1_run1_9_15_11.mat,1.0,lure,178.0,0,0.05,indoor,1.4113225000037346,1270.1805157593124,1.70436835392058,0.085218417696029,1.0,,,,,3.0,,0,128,0,,3lure
13,14905,1,MSTstudy,1,/content/G/Shareddrives/LC-Aging/Young Adult - Behavioral + Pupillometry Study/Data Collection/metacog YA/subject13_MST_session1_run1_9_15_11.mat,2.0,lure,190.0,0,0.05,indoor,1.1054562000063015,1279.6189111747851,1.7170330911436231,0.08585165455718116,1.0,,,,,4.0,,0,128,0,,4lure
13,14905,1,MSTstudy,1,/content/G/Shareddrives/LC-Aging/Young Adult - Behavioral + Pupillometry Study/Data Collection/metacog YA/subject13_MST_session1_run1_9_15_11.mat,3.0,lure,160.0,1,0.4,indoor,0.5527186000108486,4829.0759312320915,0.8099758354968285,0.3239903341987314,1.0,,,,,3.0,,0,128,0,,3lure
13,14905,1,MSTstudy,1,/content/G/Shareddrives/LC-Aging/Young Adult - Behavioral + Pupillometry Study/Data Collection/metacog YA/subject13_MST_session1_run1_9_15_11.mat,4.0,lure,129.0,0,0.05,outdoor,0.3646539000037592,1052.0358166189112,1.4116549032122256,0.07058274516061129,1.0,,,,,4.0,,0,128,0,,4lure
13,14905,1,MSTstudy,1,/content/G/Shareddrives/LC-Aging/Young Adult - Behavioral + Pupillometry Study/Data Collection/metacog YA/subject13_MST_session1_run1_9_15_11.mat,5.0,lure,140.0,0,0.05,indoor,0.4587972000008449,998.7220630372493,1.3401168239345849,0.06700584119672924,1.0,,,,,2.0,,0,128,0,,2lure
13,14905,1,MSTstudy,1,/content/G/Shareddrives/LC-Aging/Young Adult - Behavioral + Pupillometry Study/Data Collection/metacog YA/subject13_MST_session1_run1_9_15_11.mat,6.0,lure,162.0,0,0.05,outdoor,0.3880856000032509,981.3151862464183,1.3167597265970055,0.06583798632985027,1.0,,,,,5.0,,0,128,0,,5lure
13,14905,1,MSTstudy,1,/content/G/Shareddrives/LC-Aging/Young Adult - Behavioral + Pupillometry Study/Data Collection/metacog YA/subject13_MST_session1_run1_9_15_11.mat,7.0,lure,150.0,1,0.4,outdoor,0.2825460000021849,4919.648997134671,0.8251675607404682,0.33006702429618723,1.0,,,,,2.0,,0,128,0,,2lure
13,14905,1,MSTstudy,1,/content/G/Shareddrives/LC-Aging/Young Adult - Behavioral + Pupillometry Study/Data Collection/metacog YA/subject13_MST_session1_run1_9_15_11.mat,8.0,targ,125.0,0,0.05,indoor,0.41173159999016207,1035.2578796561604,1.3891417372105475,0.06945708686052737,1.0,,,,,,,0,128,0,,0targ
13,14905,1,MSTstudy,1,/content/G/Shareddrives/LC-Aging/Young Adult - Behavioral + Pupillometry Study/Data Collection/metacog YA/subject13_MST_session1_run1_9_15_11.mat,9.0,lure,183.0,0,0.05,outdoor,1.16434040000604,981.7507163323783,1.3173441346291557,0.06586720673145778,1.0,,,,,4.0,,0,128,0,,4lure
13,14905,1,MSTstudy,1,/content/G/Shareddrives/LC-Aging/Young Adult - Behavioral + Pupillometry Study/Data Collection/metacog YA/subject13_MST_session1_run1_9_15_11.mat,10.0,lure,145.0,0,0.05,indoor,0.4705404999986058,927.6733524355301,1.2447814189004094,0.06223907094502047,1.0,,,,,2.0,,0,128,0,,2lure
13,14905,1,MSTstudy,1,/content/G/Shareddrives/LC-Aging/Young Adult - Behavioral + Pupillometry Study/Data Collection/metacog YA/subject13_MST_session1_run1_9_15_11.mat,11.0,lure,168.0,0,0.05,indoor,0.6233341000042856,893.7335243553009,1.1992398850792363,0.05996199425396182,1.0,,,,,2.0,,0,128,0,,2lure
13,14905,1,MSTstudy,1,/content/G/Shareddrives/LC-Aging/Young Adult - Behavioral + Pupillometry Study/Data Collection/metacog YA/subject13_MST_session1_run1_9_15_11.mat,12.0,targ,93.0,0,0.05,indoor,0.4360059999889927,987.9097421203438,1.3256085100574893,0.06628042550287445,1.0,,,,,,,0,128,0,,0targ
13,14905,1,MSTstudy,1,/content/G/Shareddrives/LC-Aging/Young Adult - Behavioral + Pupillometry Study/Data Collection/metacog YA/subject13_MST_session1_run1_9_15_11.mat,13.0,targ,65.0,0,0.05,indoor,0.4000781999930041,888.0601719197708,1.191627201502544,0.059581360075127196,1.0,,,,,,,0,128,0,,0targ
13,14905,1,MSTstudy,1,/content/G/Shareddrives/LC-Aging/Young Adult - Behavioral + Pupillometry Study/Data Collection/metacog YA/subject13_MST_session1_run1_9_15_11.mat,14.0,targ,109.0,1,0.4,outdoor,0.740932700005942,4797.381088825215,0.804659692858976,0.3218638771435904,0.9382716049382716,,,,,,,0,128,0,,0targ
13,14905,1,MSTstudy,1,/content/G/Shareddrives/LC-Aging/Young Adult - Behavioral + Pupillometry Study/Data Collection/metacog YA/subject13_MST_session1_run1_9_15_11.mat,15.0,targ,88.0,1,0.4,indoor,0.646926400004304,5134.002865329513,0.8611209099848227,0.3444483639939291,1.0,,,,,,,0,128,0,,0targ
13,14905,1,MSTstudy,1,/content/G/Shareddrives/LC-Aging/Young Adult - Behavioral + Pupillometry Study/Data Collection/metacog YA/subject13_MST_session1_run1_9_15_11.mat,16.0,lure,158.0,0,0.05,outdoor,0.6469156999955885,859.230659025788,1.152942850084922,0.05764714250424609,1.0,,,,,3.0,,0,128,0,,3lure
13,14905,1,MSTstudy,1,/content/G/Shareddrives/LC-Aging/Young Adult - Behavioral + Pupillometry Study/Data Collection/metacog YA/subject13_MST_session1_run1_9_15_11.mat,17.0,lure,142.0,0,0.05,indoor,0.5644800000009127,791.9383954154728,1.0626479643280413,0.05313239821640207,1.0,,,,,2.0,,0,128,0,,2lure
13,14905,1,MSTstudy,1,/content/G/Shareddrives/LC-Aging/Young Adult - Behavioral + Pupillometry Study/Data Collection/metacog YA/subject13_MST_session1_run1_9_15_11.mat,18.0,targ,66.0,1,0.4,indoor,0.6351295999920694,5705.396848137536,0.9569602227671143,0.38278408910684575,1.0,,,,,,,0,128,0,,0targ
13,14905,1,MSTstudy,1,/content/G/Shareddrives/LC-Aging/Young Adult - Behavioral + Pupillometry Study/Data Collection/metacog YA/subject13_MST_session1_run1_9_15_11.mat,19.0,targ,97.0,0,0.05,indoor,0.6586936999956379,943.8323782234957,1.2664641103300847,0.06332320551650424,1.0,,,,,,,0,128,0,,0targ
13,14905,1,MSTstudy,1,/content/G/Shareddrives/LC-Aging/Young Adult - Behavioral + Pupillometry Study/Data Collection/metacog YA/subject13_MST_session1_run1_9_15_11.mat,20.0,targ,128.0,1,0.4,outdoor,0.5410575999994762,5856.644699140401,0.9823288660081182,0.3929315464032473,1.0,,,,,,,0,128,0,,0targ
13,14905,1,MSTstudy,1,/content/G/Shareddrives/LC-Aging/Young Adult - Behavioral + Pupillometry Study/Data Collection/metacog YA/subject13_MST_session1_run1_9_15_11.mat,21.0,targ,68.0,1,0.4,outdoor,0.5056804000050761,4728.06446991404,0.7930332891502919,0.31721331566011673,1.0,,,,,,,0,128,0,,0targ
13,14905,1,MSTstudy,1,/content/G/Shareddrives/LC-Aging/Young Adult - Behavioral + Pupillometry Study/Data Collection/metacog YA/subject13_MST_session1_run1_9_15_11.mat,22.0,lure,159.0,1,0.4,indoor,0.6115410000056727,5273.95558739255,0.8845950331084451,0.35383801324337805,1.0,,,,,1.0,,0,128,0,,1lure
13,14905,1,MSTstudy,1,/content/G/Shareddrives/LC-Aging/Young Adult - Behavioral + Pupillometry Study/Data Collection/metacog YA/subject13_MST_session1_run1_9_15_11.mat,23.0,targ,80.0,1,0.4,indoor,0.36487650001072325,5228.454154727794,0.8769631255833268,0.3507852502333307,1.0,,,,,,,0,128,0,,0targ
13,14905,1,MSTstudy,1,/content/G/Shareddrives/LC-Aging/Young Adult - Behavioral + Pupillometry Study/Data Collection/metacog YA/subject13_MST_session1_run1_9_15_11.mat,24.0,targ,75.0,0,0.05,outdoor,0.4941021999984514,1053.3037249283668,1.413356222647926,0.0706678111323963,1.0,,,,,,,0,128,0,,0targ
13,14905,1,MSTstudy,1,/content/G/Shareddrives/LC-Aging/Young Adult - Behavioral + Pupillometry Study/Data Collection/metacog YA/subject13_MST_session1_run1_9_15_11.mat,25.0,targ,73.0,0,0.05,outdoor,0.4352096999937203,853.5644699140402,1.1453397784824424,0.05726698892412212,1.0,,,,,,,0,128,0,,0targ
13,14905,1,MSTstudy,1,/content/G/Shareddrives/LC-Aging/Young Adult - Behavioral + Pupillometry Study/Data Collection/metacog YA/subject13_MST_session1_run1_9_15_11.mat,26.0,targ,124.0,1,0.4,indoor,0.5645643000025302,4761.555873925501,0.7986507671797217,0.3194603068718887,1.0,,,,,,,0,128,0,,0targ
13,14905,1,MSTstudy,1,/content/G/Shareddrives/LC-Aging/Young Adult - Behavioral + Pupillometry Study/Data Collection/metacog YA/subject13_MST_session1_run1_9_15_11.mat,27.0,lure,151.0,1,0.4,outdoor,0.3763920000055805,5113.292263610315,0.857647142504246,0.3430588570016984,1.0,,,,,5.0,,0,128,0,,5lure
13,14905,1,MSTstudy,1,/content/G/Shareddrives/LC-Aging/Young Adult - Behavioral + Pupillometry Study/Data Collection/metacog YA/subject13_MST_session1_run1_9_15_11.mat,28.0,targ,127.0,0,0.05,indoor,0.9526449999975739,889.0601719197708,1.192969033102678,0.059648451655133904,1.0,,,,,,,0,128,0,,0targ
13,14905,1,MSTstudy,1,/content/G/Shareddrives/LC-Aging/Young Adult - Behavioral + Pupillometry Study/Data Collection/metacog YA/subject13_MST_session1_run1_9_15_11.mat,29.0,targ,101.0,1,0.4,indoor,0.3175744000036502,4807.498567335244,0.8063566869062805,0.3225426747625122,1.0,,,,,,,0,128,0,,0targ
13,14905,1,MSTstudy,1,/content/G/Shareddrives/LC-Aging/Young Adult - Behavioral + Pupillometry Study/Data Collection/metacog YA/subject13_MST_session1_run1_9_15_11.mat,30.0,targ,92.0,1,0.4,outdoor,0.34113889999571256,5501.584527220631,0.9227749961792403,0.3691099984716961,1.0,,,,,,,0,128,0,,0targ
13,14905,1,MSTstudy,1,/content/G/Shareddrives/LC-Aging/Young Adult - Behavioral + Pupillometry Study/Data Collection/metacog YA/subject13_MST_session1_run1_9_15_11.mat,31.0,lure,154.0,0,0.05,indoor,0.4351639999949839,1313.0501432664757,1.7618921747956735,0.08809460873978368,1.0,,,,,3.0,,0,128,0,,3lure
13,14905,1,MSTstudy,1,/content/G/Shareddrives/LC-Aging/Young Adult - Behavioral + Pupillometry Study/Data Collection/metacog YA/subject13_MST_session1_run1_9_15_11.mat,32.0,targ,79.0,1,0.4,outdoor,0.3057985999912489,4975.78223495702,0.8345827297814524,0.333833091912581,1.0,,,,,,,0,128,0,,0targ
13,14905,1,MSTstudy,1,/content/G/Shareddrives/LC-Aging/Young Adult - Behavioral + Pupillometry Study/Data Collection/metacog YA/subject13_MST_session1_run1_9_15_11.mat,33.0,lure,143.0,0,0.05,indoor,0.729378000003635,1749.7106017191977,2.3478169764766155,0.11739084882383077,1.0,,,,,3.0,,0,128,0,,3lure
13,14905,1,MSTstudy,1,/content/G/Shareddrives/LC-Aging/Young Adult - Behavioral + Pupillometry Study/Data Collection/metacog YA/subject13_MST_session1_run1_9_15_11.mat,34.0,lure,166.0,1,0.4,indoor,0.8232276999915484,5058.661891117478,0.8484840474869974,0.3393936189947989,1.0,,,,,4.0,,0,128,0,,4lure
13,14905,1,MSTstudy,1,/content/G/Shareddrives/LC-Aging/Young Adult - Behavioral + Pupillometry Study/Data Collection/metacog YA/subject13_MST_session1_run1_9_15_11.mat,35.0,targ,102.0,1,0.4,outdoor,0.5881982999999309,5168.163323782235,0.8668506078131895,0.34674024312527574,1.0,,,,,,,0,128,0,,0targ
13,14905,1,MSTstudy,1,/content/G/Shareddrives/LC-Aging/Young Adult - Behavioral + Pupillometry Study/Data Collection/metacog YA/subject13_MST_session1_run1_9_15_11.mat,36.0,targ,90.0,1,0.4,outdoor,0.7527373999910196,5625.704871060172,0.9435935711271674,0.377437428450867,1.0,,,,,,,0,128,0,,0targ
13,14905,1,MSTstudy,1,/content/G/Shareddrives/LC-Aging/Young Adult - Behavioral + Pupillometry Study/Data Collection/metacog YA/subject13_MST_session1_run1_9_15_11.mat,37.0,lure,161.0,0,0.05,indoor,0.5998964000027627,1103.7908309455588,1.4811014169011187,0.07405507084505594,1.0,,,,,5.0,,0,128,0,,5lure
13,14905,1,MSTstudy,1,/content/G/Shareddrives/LC-Aging/Young Adult - Behavioral + Pupillometry Study/Data Collection/metacog YA/subject13_MST_session1_run1_9_15_11.mat,38.0,targ,86.0,0,0.05,outdoor,0.44693599999300204,826.1905444126074,1.108608580224901,0.05543042901124505,1.0,,,,,,,0,128,0,,0targ
13,14905,1,MSTstudy,1,/content/G/Shareddrives/LC-Aging/Young Adult - Behavioral + Pupillometry Study/Data Collection/metacog YA/subject13_MST_session1_run1_9_15_11.mat,39.0,targ,108.0,1,0.4,outdoor,0.517458300004364,5294.438395415473,0.8880305929915251,0.35521223719661005,1.0,,,,,,,0,128,0,,0targ
13,14905,1,MSTstudy,1,/content/G/Shareddrives/LC-Aging/Young Adult - Behavioral + Pupillometry Study/Data Collection/metacog YA/subject13_MST_session1_run1_9_15_11.mat,40.0,targ,71.0,0,0.05,indoor,0.30578029999742284,922.2922636103152,1.237560903871607,0.06187804519358036,1.0,,,,,,,0,128,0,,0targ
13,14905,1,MSTstudy,1,/content/G/Shareddrives/LC-Aging/Young Adult - Behavioral + Pupillometry Study/Data Collection/metacog YA/subject13_MST_session1_run1_9_15_11.mat,41.0,lure,148.0,1,0.4,indoor,0.4469249000103446,5302.232091690545,0.8893378214844926,0.355735128593797,1.0,,,,,1.0,,0,128,0,,1lure
13,14905,1,MSTstudy,1,/content/G/Shareddrives/LC-Aging/Young Adult - Behavioral + Pupillometry Study/Data Collection/metacog YA/subject13_MST_session1_run1_9_15_11.mat,42.0,lure,164.0,1,0.4,indoor,0.49395930000173394,5090.54441260745,0.8538316693403974,0.341532667736159,1.0,,,,,4.0,,0,128,0,,4lure
13,14905,1,MSTstudy,1,/content/G/Shareddrives/LC-Aging/Young Adult - Behavioral + Pupillometry Study/Data Collection/metacog YA/subject13_MST_session1_run1_9_15_11.mat,43.0,lure,133.0,0,0.05,outdoor,0.3177929000084987,1045.8467048710602,1.4033501574921976,0.07016750787460987,1.0,,,,,5.0,,0,128,0,,5lure
13,14905,1,MSTstudy,1,/content/G/Shareddrives/LC-Aging/Young Adult - Behavioral + Pupillometry Study/Data Collection/metacog YA/subject13_MST_session1_run1_9_15_11.mat,44.0,lure,173.0,0,0.05,outdoor,0.6112625999958254,1008.8782234957021,1.3537446809737699,0.0676872340486885,1.0,,,,,1.0,,0,128,0,,1lure
13,14905,1,MSTstudy,1,/content/G/Shareddrives/LC-Aging/Young Adult - Behavioral + Pupillometry Study/Data Collection/metacog YA/subject13_MST_session1_run1_9_15_11.mat,45.0,targ,84.0,1,0.4,outdoor,0.29401830000279006,4751.862464183381,0.7970249017415937,0.3188099606966375,1.0,,,,,,,0,128,0,,0targ
13,14905,1,MSTstudy,1,/content/G/Shareddrives/LC-Aging/Young Adult - Behavioral + Pupillometry Study/Data Collection/metacog YA/subject13_MST_session1_run1_9_15_11.mat,46.0,lure,131.0,0,0.05,outdoor,0.23591059999307618,1357.6819484240689,1.821780541327164,0.0910890270663582,1.0,,,,,2.0,,0,128,0,,2lure
13,14905,1,MSTstudy,1,/content/G/Shareddrives/LC-Aging/Young Adult - Behavioral + Pupillometry Study/Data Collection/metacog YA/subject13_MST_session1_run1_9_15_11.mat,47.0,lure,147.0,0,0.05,indoor,0.3293508000060683,1017.1275071633238,1.3648138304774555,0.06824069152387278,1.0,,,,,5.0,,0,128,0,,5lure
13,14905,1,MSTstudy,1,/content/G/Shareddrives/LC-Aging/Young Adult - Behavioral + Pupillometry Study/Data Collection/metacog YA/subject13_MST_session1_run1_9_15_11.mat,48.0,lure,144.0,1,0.4,indoor,0.4116459000069881,4462.154727793696,0.7484325273052157,0.2993730109220863,1.0,,,,,4.0,,0,128,0,,4lure
13,14905,1,MSTstudy,1,/content/G/Shareddrives/LC-Aging/Young Adult - Behavioral + Pupillometry Study/Data Collection/metacog YA/subject13_MST_session1_run1_9_15_11.mat,49.0,lure,157.0,1,0.4,indoor,0.41171879999455996,4909.127507163324,0.823402802274962,0.3293611209099848,1.0,,,,,3.0,,0,128,0,,3lure
13,14905,1,MSTstudy,1,/content/G/Shareddrives/LC-Aging/Young Adult - Behavioral + Pupillometry Study/Data Collection/metacog YA/subject13_MST_session1_run1_9_15_11.mat,50.0,lure,165.0,0,0.05,indoor,0.23523720000230242,735.4240687679084,0.986815254972034,0.0493407627486017,1.0,,,,,4.0,,0,128,0,,4lure
13,14905,1,MSTstudy,1,/content/G/Shareddrives/LC-Aging/Young Adult - Behavioral + Pupillometry Study/Data Collection/metacog YA/subject13_MST_session1_run1_9_15_11.mat,51.0,targ,115.0,0,0.05,indoor,0.28230720000283327,1032.6074498567336,1.3855853067517392,0.06927926533758696,1.0,,,,,,,0,128,0,,0targ
13,14905,1,MSTstudy,1,/content/G/Shareddrives/LC-Aging/Young Adult - Behavioral + Pupillometry Study/Data Collection/metacog YA/subject13_MST_session1_run1_9_15_11.mat,52.0,lure,175.0,1,0.4,indoor,0.5998117999988608,4410.2750716332375,0.7397308070501908,0.2958923228200763,0.8950617283950617,,,,,4.0,,0,128,0,,4lure
13,14905,1,MSTstudy,1,/content/G/Shareddrives/LC-Aging/Young Adult - Behavioral + Pupillometry Study/Data Collection/metacog YA/subject13_MST_session1_run1_9_15_11.mat,53.0,targ,107.0,0,0.05,outdoor,0.3764128000038909,912.0716332378223,1.223846539064505,0.06119232695322525,1.0,,,,,,,0,128,0,,0targ
13,14905,1,MSTstudy,1,/content/G/Shareddrives/LC-Aging/Young Adult - Behavioral + Pupillometry Study/Data Collection/metacog YA/subject13_MST_session1_run1_9_15_11.mat,54.0,targ,106.0,0,0.05,indoor,0.6822162000025855,919.8954154727794,1.2343447372999388,0.061717236864996944,1.0,,,,,,,0,128,0,,0targ
13,14905,1,MSTstudy,1,/content/G/Shareddrives/LC-Aging/Young Adult - Behavioral + Pupillometry Study/Data Collection/metacog YA/subject13_MST_session1_run1_9_15_11.mat,55.0,targ,100.0,1,0.4,indoor,1.4818901999969967,5027.190544412608,0.8432053915485757,0.33728215661943023,1.0,,,,,,,0,128,0,,0targ
13,14905,1,MSTstudy,1,/content/G/Shareddrives/LC-Aging/Young Adult - Behavioral + Pupillometry Study/Data Collection/metacog YA/subject13_MST_session1_run1_9_15_11.mat,56.0,targ,118.0,1,0.4,outdoor,0.32908949999546167,5162.83094555874,0.8659562136126702,0.34638248544506806,1.0,,,,,,,0,128,0,,0targ
13,14905,1,MSTstudy,1,/content/G/Shareddrives/LC-Aging/Young Adult - Behavioral + Pupillometry Study/Data Collection/metacog YA/subject13_MST_session1_run1_9_15_11.mat,57.0,targ,122.0,0,0.05,outdoor,1.0585730000020703,1276.0028653295128,1.712180966560903,0.08560904832804514,1.0,,,,,,,0,128,0,,0targ
13,14905,1,MSTstudy,1,/content/G/Shareddrives/LC-Aging/Young Adult - Behavioral + Pupillometry Study/Data Collection/metacog YA/subject13_MST_session1_run1_9_15_11.mat,58.0,lure,170.0,0,0.05,indoor,0.3646223999967333,1044.240687679083,1.401195152873644,0.07005975764368219,1.0,,,,,4.0,,0,128,0,,4lure
13,14905,1,MSTstudy,1,/content/G/Shareddrives/LC-Aging/Young Adult - Behavioral + Pupillometry Study/Data Collection/metacog YA/subject13_MST_session1_run1_9_15_11.mat,59.0,targ,104.0,0,0.05,indoor,0.38801779999630526,1095.4985673352435,1.469974595552155,0.07349872977760774,1.0,,,,,,,0,128,0,,0targ
13,14905,1,MSTstudy,1,/content/G/Shareddrives/LC-Aging/Young Adult - Behavioral + Pupillometry Study/Data Collection/metacog YA/subject13_MST_session1_run1_9_15_11.mat,60.0,lure,191.0,0,0.05,outdoor,0.011814800003776327,901.3925501432665,1.2095170079077713,0.06047585039538856,1.0,,,,,3.0,,0,128,0,,3lure
13,14905,1,MSTstudy,1,/content/G/Shareddrives/LC-Aging/Young Adult - Behavioral + Pupillometry Study/Data Collection/metacog YA/subject13_MST_session1_run1_9_15_11.mat,61.0,targ,77.0,1,0.4,indoor,0.31754849999560975,3925.103151862464,0.658353430369417,0.2633413721477668,0.9691358024691358,,,,,,,0,128,0,,0targ
13,14905,1,MSTstudy,1,/content/G/Shareddrives/LC-Aging/Young Adult - Behavioral + Pupillometry Study/Data Collection/metacog YA/subject13_MST_session1_run1_9_15_11.mat,62.0,targ,81.0,0,0.05,indoor,0.3175937000050908,1061.9369627507162,1.424940573969428,0.0712470286984714,1.0,,,,,,,0,128,0,,0targ
13,14905,1,MSTstudy,1,/content/G/Shareddrives/LC-Aging/Young Adult - Behavioral + Pupillometry Study/Data Collection/metacog YA/subject13_MST_session1_run1_9_15_11.mat,63.0,lure,174.0,1,0.4,indoor,0.3646602999942843,4888.842406876791,0.8200004037029169,0.3280001614811668,0.9506172839506173,,,,,5.0,,0,128,0,,5lure
13,14905,1,MSTstudy,1,/content/G/Shareddrives/LC-Aging/Young Adult - Behavioral + Pupillometry Study/Data Collection/metacog YA/subject13_MST_session1_run1_9_15_11.mat,64.0,lure,139.0,0,0.05,indoor,0.1645758999948157,1171.9727793696275,1.5725901098552533,0.07862950549276267,1.0,,,,,5.0,,0,128,0,,5lure
13,14905,1,MSTstudy,1,/content/G/Shareddrives/LC-Aging/Young Adult - Behavioral + Pupillometry Study/Data Collection/metacog YA/subject13_MST_session1_run1_9_15_11.mat,65.0,targ,98.0,1,0.4,outdoor,0.2704680000024382,4904.30659025788,0.8225941949442939,0.32903767797771755,1.0,,,,,,,0,128,0,,0targ
13,14905,1,MSTstudy,1,/content/G/Shareddrives/LC-Aging/Young Adult - Behavioral + Pupillometry Study/Data Collection/metacog YA/subject13_MST_session1_run1_9_15_11.mat,66.0,lure,169.0,0,0.05,indoor,0.5998756000044523,1206.1962750716332,1.618512277855261,0.08092561389276305,1.0,,,,,2.0,,0,128,0,,2lure
13,14905,1,MSTstudy,1,/content/G/Shareddrives/LC-Aging/Young Adult - Behavioral + Pupillometry Study/Data Collection/metacog YA/subject13_MST_session1_run1_9_15_11.mat,67.0,targ,82.0,0,0.05,indoor,0.5762911999918288,1214.9140401146133,1.6302100504724768,0.08151050252362384,1.0,,,,,,,0,128,0,,0targ
13,14905,1,MSTstudy,1,/content/G/Shareddrives/LC-Aging/Young Adult - Behavioral + Pupillometry Study/Data Collection/metacog YA/subject13_MST_session1_run1_9_15_11.mat,68.0,lure,153.0,1,0.4,indoor,0.5293179000000237,4831.7249283667625,0.8104201490048243,0.32416805960192974,1.0,,,,,1.0,,0,128,0,,1lure
13,14905,1,MSTstudy,1,/content/G/Shareddrives/LC-Aging/Young Adult - Behavioral + Pupillometry Study/Data Collection/metacog YA/subject13_MST_session1_run1_9_15_11.mat,69.0,lure,185.0,1,0.4,indoor,0.32935889999498613,5551.4269340974215,0.9311350107509933,0.37245400430039727,1.0,,,,,5.0,,0,128,0,,5lure
13,14905,1,MSTstudy,1,/content/G/Shareddrives/LC-Aging/Young Adult - Behavioral + Pupillometry Study/Data Collection/metacog YA/subject13_MST_session1_run1_9_15_11.mat,70.0,lure,152.0,0,0.05,indoor,0.3977984999946784,1346.051575931232,1.806174539994944,0.09030872699974721,1.0,,,,,1.0,,0,128,0,,1lure
13,14905,1,MSTstudy,1,/content/G/Shareddrives/LC-Aging/Young Adult - Behavioral + Pupillometry Study/Data Collection/metacog YA/subject13_MST_session1_run1_9_15_11.mat,71.0,lure,177.0,1,0.4,indoor,0.7056600999931106,5047.808022922636,0.846663539571056,0.3386654158284224,1.0,,,,,1.0,,0,128,0,,1lure
13,14905,1,MSTstudy,1,/content/G/Shareddrives/LC-Aging/Young Adult - Behavioral + Pupillometry Study/Data Collection/metacog YA/subject13_MST_session1_run1_9_15_11.mat,72.0,targ,120.0,1,0.4,indoor,0.8468389000045136,5219.545845272206,0.8754689441919165,0.35018757767676656,1.0,,,,,,,0,128,0,,0targ
13,14905,1,MSTstudy,1,/content/G/Shareddrives/LC-Aging/Young Adult - Behavioral + Pupillometry Study/Data Collection/metacog YA/subject13_MST_session1_run1_9_15_11.mat,73.0,targ,126.0,0,0.05,outdoor,0.09407289999944624,963.8810888252149,1.293366103757417,0.06466830518787084,1.0,,,,,,,0,128,0,,0targ
13,14905,1,MSTstudy,1,/content/G/Shareddrives/LC-Aging/Young Adult - Behavioral + Pupillometry Study/Data Collection/metacog YA/subject13_MST_session1_run1_9_15_11.mat,74.0,targ,110.0,0,0.05,indoor,0.23523540000314824,927.0888252148997,1.2439970818046289,0.062199854090231446,1.0,,,,,,,0,128,0,,0targ
13,14905,1,MSTstudy,1,/content/G/Shareddrives/LC-Aging/Young Adult - Behavioral + Pupillometry Study/Data Collection/metacog YA/subject13_MST_session1_run1_9_15_11.mat,75.0,targ,111.0,0,0.05,outdoor,0.44681629999831785,818.5859598853868,1.0984045084003848,0.054920225420019245,1.0,,,,,,,0,128,0,,0targ
13,14905,1,MSTstudy,1,/content/G/Shareddrives/LC-Aging/Young Adult - Behavioral + Pupillometry Study/Data Collection/metacog YA/subject13_MST_session1_run1_9_15_11.mat,76.0,targ,99.0,1,0.4,outdoor,0.4705282999930205,4919.239255014327,0.8250988351248452,0.3300395340499381,1.0,,,,,,,0,128,0,,0targ
13,14905,1,MSTstudy,1,/content/G/Shareddrives/LC-Aging/Young Adult - Behavioral + Pupillometry Study/Data Collection/metacog YA/subject13_MST_session1_run1_9_15_11.mat,77.0,targ,95.0,1,0.4,indoor,0.4350677999900654,5111.550143266476,0.8573549384881711,0.34294197539526844,1.0,,,,,,,0,128,0,,0targ
13,14905,1,MSTstudy,1,/content/G/Shareddrives/LC-Aging/Young Adult - Behavioral + Pupillometry Study/Data Collection/metacog YA/subject13_MST_session1_run1_9_15_11.mat,78.0,lure,181.0,1,0.4,indoor,0.6702991999918595,6498.127507163324,1.089924103851614,0.43596964154064566,1.0,,,,,5.0,,0,128,0,,5lure
13,14905,1,MSTstudy,1,/content/G/Shareddrives/LC-Aging/Young Adult - Behavioral + Pupillometry Study/Data Collection/metacog YA/subject13_MST_session1_run1_9_15_11.mat,79.0,lure,167.0,0,0.05,outdoor,0.37610580000909977,1201.2765042979943,1.6119107739657756,0.08059553869828878,1.0,,,,,5.0,,0,128,0,,5lure
13,14905,1,MSTstudy,1,/content/G/Shareddrives/LC-Aging/Young Adult - Behavioral + Pupillometry Study/Data Collection/metacog YA/subject13_MST_session1_run1_9_15_11.mat,80.0,targ,114.0,0,0.05,outdoor,0.3176396000053501,879.5014326647564,1.1801428147128565,0.05900714073564283,1.0,,,,,,,0,128,0,,0targ
13,14905,1,MSTstudy,1,/content/G/Shareddrives/LC-Aging/Young Adult - Behavioral + Pupillometry Study/Data Collection/metacog YA/subject13_MST_session1_run1_9_15_11.mat,81.0,targ,85.0,1,0.4,outdoor,0.22355999999854248,4844.071633237822,0.8124910488490141,0.3249964195396057,1.0,,,,,,,0,128,0,,0targ
13,14905,1,MSTstudy,1,/content/G/Shareddrives/LC-Aging/Young Adult - Behavioral + Pupillometry Study/Data Collection/metacog YA/subject13_MST_session1_run1_9_15_11.mat,82.0,targ,123.0,0,0.05,outdoor,0.39987769999424927,1123.3925501432664,1.5074036231375596,0.07537018115687799,1.0,,,,,,,0,128,0,,0targ
13,14905,1,MSTstudy,1,/content/G/Shareddrives/LC-Aging/Young Adult - Behavioral + Pupillometry Study/Data Collection/metacog YA/subject13_MST_session1_run1_9_15_11.mat,83.0,targ,74.0,1,0.4,outdoor,0.5762976999976672,5229.598853868195,0.8771551247682313,0.35086204990729253,1.0,,,,,,,0,128,0,,0targ
13,14905,1,MSTstudy,1,/content/G/Shareddrives/LC-Aging/Young Adult - Behavioral + Pupillometry Study/Data Collection/metacog YA/subject13_MST_session1_run1_9_15_11.mat,84.0,lure,146.0,0,0.05,indoor,0.7174775999883423,901.7578796561604,1.2100072185926338,0.060500360929631694,1.0,,,,,5.0,,0,128,0,,5lure
13,14905,1,MSTstudy,1,/content/G/Shareddrives/LC-Aging/Young Adult - Behavioral + Pupillometry Study/Data Collection/metacog YA/subject13_MST_session1_run1_9_15_11.mat,85.0,lure,137.0,0,0.05,outdoor,0.623335299998871,834.9957020057307,1.1204236189275152,0.05602118094637576,1.0,,,,,5.0,,0,128,0,,5lure
13,14905,1,MSTstudy,1,/content/G/Shareddrives/LC-Aging/Young Adult - Behavioral + Pupillometry Study/Data Collection/metacog YA/subject13_MST_session1_run1_9_15_11.mat,86.0,lure,188.0,0,0.05,indoor,0.35293609999644104,761.5974212034384,1.0219354863514774,0.05109677431757386,1.0,,,,,5.0,,0,128,0,,5lure
13,14905,1,MSTstudy,1,/content/G/Shareddrives/LC-Aging/Young Adult - Behavioral + Pupillometry Study/Data Collection/metacog YA/subject13_MST_session1_run1_9_15_11.mat,87.0,lure,135.0,0,0.05,outdoor,0.1765470000100322,798.471346704871,1.0714140848102933,0.05357070424051466,1.0,,,,,5.0,,0,128,0,,5lure
13,14905,1,MSTstudy,1,/content/G/Shareddrives/LC-Aging/Young Adult - Behavioral + Pupillometry Study/Data Collection/metacog YA/subject13_MST_session1_run1_9_15_11.mat,88.0,targ,116.0,0,0.05,outdoor,0.4351281000126619,963.0429799426934,1.2922415027744962,0.06461207513872481,1.0,,,,,,,0,128,0,,0targ
13,14905,1,MSTstudy,1,/content/G/Shareddrives/LC-Aging/Young Adult - Behavioral + Pupillometry Study/Data Collection/metacog YA/subject13_MST_session1_run1_9_15_11.mat,89.0,lure,141.0,0,0.05,indoor,0.05889089999254793,757.6389684813754,1.0166239094013758,0.0508311954700688,1.0,,,,,2.0,,0,128,0,,2lure
13,14905,1,MSTstudy,1,/content/G/Shareddrives/LC-Aging/Young Adult - Behavioral + Pupillometry Study/Data Collection/metacog YA/subject13_MST_session1_run1_9_15_11.mat,90.0,targ,121.0,1,0.4,outdoor,0.3057595999998739,4697.415472779369,0.7878925650418265,0.31515702601673057,1.0,,,,,,,0,128,0,,0targ
13,14905,1,MSTstudy,1,/content/G/Shareddrives/LC-Aging/Young Adult - Behavioral + Pupillometry Study/Data Collection/metacog YA/subject13_MST_session1_run1_9_15_11.mat,91.0,targ,105.0,1,0.4,outdoor,0.3880713999969885,5530.809455587392,0.9276768627285126,0.37107074509140503,1.0,,,,,,,0,128,0,,0targ
13,14905,1,MSTstudy,1,/content/G/Shareddrives/LC-Aging/Young Adult - Behavioral + Pupillometry Study/Data Collection/metacog YA/subject13_MST_session1_run1_9_15_11.mat,92.0,targ,113.0,1,0.4,outdoor,0.3175552000029711,5298.760744985673,0.8887555761465403,0.3555022304586161,1.0,,,,,,,0,128,0,,0targ
13,14905,1,MSTstudy,1,/content/G/Shareddrives/LC-Aging/Young Adult - Behavioral + Pupillometry Study/Data Collection/metacog YA/subject13_MST_session1_run1_9_15_11.mat,93.0,targ,70.0,1,0.4,outdoor,0.3176681000040844,5284.017191977077,0.8862826554808919,0.35451306219235673,1.0,,,,,,,0,128,0,,0targ
13,14905,1,MSTstudy,1,/content/G/Shareddrives/LC-Aging/Young Adult - Behavioral + Pupillometry Study/Data Collection/metacog YA/subject13_MST_session1_run1_9_15_11.mat,94.0,lure,171.0,1,0.4,indoor,0.43542949999391567,5393.031518624642,0.9045675140262733,0.36182700561050934,1.0,,,,,4.0,,0,128,0,,4lure
13,14905,1,MSTstudy,1,/content/G/Shareddrives/LC-Aging/Young Adult - Behavioral + Pupillometry Study/Data Collection/metacog YA/subject13_MST_session1_run1_9_15_11.mat,95.0,targ,78.0,0,0.05,indoor,0.27046189999964554,1872.012893982808,2.511926057004774,0.1255963028502387,0.8703703703703703,,,,,,,0,128,0,,0targ
13,14905,1,MSTstudy,1,/content/G/Shareddrives/LC-Aging/Young Adult - Behavioral + Pupillometry Study/Data Collection/metacog YA/subject13_MST_session1_run1_9_15_11.mat,96.0,lure,187.0,0,0.05,indoor,0.4469127999909688,1170.9383954154728,1.5712021407788967,0.07856010703894484,1.0,,,,,4.0,,0,128,0,,4lure
13,14905,1,MSTstudy,1,/content/G/Shareddrives/LC-Aging/Young Adult - Behavioral + Pupillometry Study/Data Collection/metacog YA/subject13_MST_session1_run1_9_15_11.mat,97.0,lure,156.0,1,0.4,outdoor,0.45872729999246076,4924.946991404012,0.8260561877564596,0.3304224751025838,1.0,,,,,4.0,,0,128,0,,4lure
13,14905,1,MSTstudy,1,/content/G/Shareddrives/LC-Aging/Young Adult - Behavioral + Pupillometry Study/Data Collection/metacog YA/subject13_MST_session1_run1_9_15_11.mat,98.0,lure,182.0,0,0.05,indoor,0.6115701999951852,977.1203438395415,1.3111309544978753,0.06555654772489376,1.0,,,,,3.0,,0,128,0,,3lure
13,14905,1,MSTstudy,1,/content/G/Shareddrives/LC-Aging/Young Adult - Behavioral + Pupillometry Study/Data Collection/metacog YA/subject13_MST_session1_run1_9_15_11.mat,99.0,lure,179.0,1,0.4,indoor,0.45872729999246076,5097.194842406877,0.8549471389478156,0.3419788555791263,1.0,,,,,3.0,,0,128,0,,3lure
13,14905,1,MSTstudy,1,/content/G/Shareddrives/LC-Aging/Young Adult - Behavioral + Pupillometry Study/Data Collection/metacog YA/subject13_MST_session1_run1_9_15_11.mat,100.0,lure,163.0,0,0.05,outdoor,0.8702335999987554,1197.0945558739254,1.6062993034202286,0.08031496517101143,1.0,,,,,3.0,,0,128,0,,3lure
13,14905,1,MSTstudy,1,/content/G/Shareddrives/LC-Aging/Young Adult - Behavioral + Pupillometry Study/Data Collection/metacog YA/subject13_MST_session1_run1_9_15_11.mat,101.0,lure,189.0,1,0.4,indoor,0.5060736000014003,4679.441260744986,0.7848777693299205,0.31395110773196816,0.9691358024691358,,,,,5.0,,0,128,0,,5lure
13,14905,1,MSTstudy,1,/content/G/Shareddrives/LC-Aging/Young Adult - Behavioral + Pupillometry Study/Data Collection/metacog YA/subject13_MST_session1_run1_9_15_11.mat,102.0,lure,186.0,0,0.05,indoor,0.5410020999988774,1016.541547277937,1.3640275709868326,0.06820137854934162,1.0,,,,,3.0,,0,128,0,,3lure
13,14905,1,MSTstudy,1,/content/G/Shareddrives/LC-Aging/Young Adult - Behavioral + Pupillometry Study/Data Collection/metacog YA/subject13_MST_session1_run1_9_15_11.mat,103.0,lure,132.0,0,0.05,outdoor,0.693914000003133,1021.6934097421204,1.370940502840819,0.06854702514204095,1.0,,,,,5.0,,0,128,0,,5lure
13,14905,1,MSTstudy,1,/content/G/Shareddrives/LC-Aging/Young Adult - Behavioral + Pupillometry Study/Data Collection/metacog YA/subject13_MST_session1_run1_9_15_11.mat,104.0,targ,91.0,1,0.4,indoor,0.3880578999960562,4968.432664756447,0.8333499940886359,0.3333399976354543,1.0,,,,,,,0,128,0,,0targ
13,14905,1,MSTstudy,1,/content/G/Shareddrives/LC-Aging/Young Adult - Behavioral + Pupillometry Study/Data Collection/metacog YA/subject13_MST_session1_run1_9_15_11.mat,105.0,targ,96.0,1,0.4,outdoor,0.40003239999350626,5024.320916905444,0.8427240719398599,0.33708962877594395,1.0,,,,,,,0,128,0,,0targ
13,14905,1,MSTstudy,1,/content/G/Shareddrives/LC-Aging/Young Adult - Behavioral + Pupillometry Study/Data Collection/metacog YA/subject13_MST_session1_run1_9_15_11.mat,106.0,lure,184.0,0,0.05,indoor,0.47050640000088606,1044.43553008596,1.4014565985722374,0.07007282992861187,1.0,,,,,3.0,,0,128,0,,3lure
13,14905,1,MSTstudy,1,/content/G/Shareddrives/LC-Aging/Young Adult - Behavioral + Pupillometry Study/Data Collection/metacog YA/subject13_MST_session1_run1_9_15_11.mat,107.0,targ,69.0,1,0.4,indoor,0.41135350000695325,5326.3280802292265,0.8933794163417018,0.35735176653668077,1.0,,,,,,,0,128,0,,0targ
13,14905,1,MSTstudy,1,/content/G/Shareddrives/LC-Aging/Young Adult - Behavioral + Pupillometry Study/Data Collection/metacog YA/subject13_MST_session1_run1_9_15_11.mat,108.0,targ,103.0,1,0.4,indoor,0.54097709999769,5189.345272206304,0.8704034337816678,0.3481613735126671,1.0,,,,,,,0,128,0,,0targ
13,14905,1,MSTstudy,1,/content/G/Shareddrives/LC-Aging/Young Adult - Behavioral + Pupillometry Study/Data Collection/metacog YA/subject13_MST_session1_run1_9_15_11.mat,109.0,lure,176.0,1,0.4,outdoor,0.258777299997746,5564.481375358167,0.9333246184767137,0.3733298473906854,1.0,,,,,2.0,,0,128,0,,2lure
13,14905,1,MSTstudy,1,/content/G/Shareddrives/LC-Aging/Young Adult - Behavioral + Pupillometry Study/Data Collection/metacog YA/subject13_MST_session1_run1_9_15_11.mat,110.0,targ,117.0,0,0.05,outdoor,0.3880178999970667,1850.9469914040114,2.4836591632391967,0.12418295816195984,1.0,,,,,,,0,128,0,,0targ
13,14905,1,MSTstudy,1,/content/G/Shareddrives/LC-Aging/Young Adult - Behavioral + Pupillometry Study/Data Collection/metacog YA/subject13_MST_session1_run1_9_15_11.mat,111.0,targ,87.0,1,0.4,indoor,0.6586448000016389,5398.436962750717,0.9054741634939142,0.3621896653975657,1.0,,,,,,,0,128,0,,0targ
13,14905,1,MSTstudy,1,/content/G/Shareddrives/LC-Aging/Young Adult - Behavioral + Pupillometry Study/Data Collection/metacog YA/subject13_MST_session1_run1_9_15_11.mat,112.0,targ,72.0,1,0.4,indoor,0.3998365000006743,5927.035816618911,0.994135494233296,0.3976541976933184,1.0,,,,,,,0,128,0,,0targ
13,14905,1,MSTstudy,1,/content/G/Shareddrives/LC-Aging/Young Adult - Behavioral + Pupillometry Study/Data Collection/metacog YA/subject13_MST_session1_run1_9_15_11.mat,113.0,lure,180.0,1,0.4,outdoor,0.6702557999960845,5309.318051575931,0.8905263420959294,0.3562105368383718,1.0,,,,,5.0,,0,128,0,,5lure
13,14905,1,MSTstudy,1,/content/G/Shareddrives/LC-Aging/Young Adult - Behavioral + Pupillometry Study/Data Collection/metacog YA/subject13_MST_session1_run1_9_15_11.mat,114.0,lure,130.0,1,0.4,outdoor,0.505679300011252,5184.8252148997135,0.8696452893156178,0.34785811572624714,1.0,,,,,4.0,,0,128,0,,4lure
13,14905,1,MSTstudy,1,/content/G/Shareddrives/LC-Aging/Young Adult - Behavioral + Pupillometry Study/Data Collection/metacog YA/subject13_MST_session1_run1_9_15_11.mat,115.0,targ,76.0,0,0.05,indoor,0.2820768999954453,1565.7521489971348,2.1009757115023615,0.10504878557511807,1.0,,,,,,,0,128,0,,0targ
13,14905,1,MSTstudy,1,/content/G/Shareddrives/LC-Aging/Young Adult - Behavioral + Pupillometry Study/Data Collection/metacog YA/subject13_MST_session1_run1_9_15_11.mat,116.0,lure,172.0,1,0.4,outdoor,0.34097070001007523,5273.959885386819,0.8845957540065111,0.35383830160260443,1.0,,,,,3.0,,0,128,0,,3lure
13,14905,1,MSTstudy,1,/content/G/Shareddrives/LC-Aging/Young Adult - Behavioral + Pupillometry Study/Data Collection/metacog YA/subject13_MST_session1_run1_9_15_11.mat,117.0,lure,155.0,1,0.4,indoor,0.7057119999954011,5467.640401146132,0.9170815835535276,0.36683263342141104,1.0,,,,,2.0,,0,128,0,,2lure
13,14905,1,MSTstudy,1,/content/G/Shareddrives/LC-Aging/Young Adult - Behavioral + Pupillometry Study/Data Collection/metacog YA/subject13_MST_session1_run1_9_15_11.mat,118.0,lure,138.0,0,0.05,indoor,0.07053779999841936,1049.3209169054442,1.4080119649855003,0.07040059824927503,1.0,,,,,1.0,,0,128,0,,1lure
13,14905,1,MSTstudy,1,/content/G/Shareddrives/LC-Aging/Young Adult - Behavioral + Pupillometry Study/Data Collection/metacog YA/subject13_MST_session1_run1_9_15_11.mat,119.0,lure,192.0,0,0.05,outdoor,0.2469561000034446,1490.8796561604584,2.0005094346332886,0.10002547173166443,1.0,,,,,5.0,,0,128,0,,5lure
13,14905,1,MSTstudy,1,/content/G/Shareddrives/LC-Aging/Young Adult - Behavioral + Pupillometry Study/Data Collection/metacog YA/subject13_MST_session1_run1_9_15_11.mat,120.0,targ,94.0,1,0.4,indoor,0.3293459999986226,5095.3223495702005,0.854633067690406,0.3418532270761624,1.0,,,,,,,0,128,0,,0targ
13,14905,1,MSTstudy,1,/content/G/Shareddrives/LC-Aging/Young Adult - Behavioral + Pupillometry Study/Data Collection/metacog YA/subject13_MST_session1_run1_9_15_11.mat,121.0,lure,149.0,1,0.4,indoor,0.21177690000331495,5159.146131805158,0.8653381636707745,0.3461352654683098,1.0,,,,,3.0,,0,128,0,,3lure
13,14905,1,MSTstudy,1,/content/G/Shareddrives/LC-Aging/Young Adult - Behavioral + Pupillometry Study/Data Collection/metacog YA/subject13_MST_session1_run1_9_15_11.mat,122.0,lure,136.0,0,0.05,outdoor,0.3175633999926504,1640.8796561604584,2.201784174653416,0.1100892087326708,1.0,,,,,1.0,,0,128,0,,1lure
13,14905,1,MSTstudy,1,/content/G/Shareddrives/LC-Aging/Young Adult - Behavioral + Pupillometry Study/Data Collection/metacog YA/subject13_MST_session1_run1_9_15_11.mat,123.0,targ,67.0,0,0.05,indoor,0.37637070000346284,873.7765042979943,1.1724609249218307,0.058623046246091534,1.0,,,,,,,0,128,0,,0targ
13,14905,1,MSTstudy,1,/content/G/Shareddrives/LC-Aging/Young Adult - Behavioral + Pupillometry Study/Data Collection/metacog YA/subject13_MST_session1_run1_9_15_11.mat,124.0,targ,83.0,1,0.4,indoor,0.48192479999852367,5467.481375358167,0.9170549103250867,0.36682196413003465,1.0,,,,,,,0,128,0,,0targ
13,14905,1,MSTstudy,1,/content/G/Shareddrives/LC-Aging/Young Adult - Behavioral + Pupillometry Study/Data Collection/metacog YA/subject13_MST_session1_run1_9_15_11.mat,125.0,targ,89.0,1,0.4,indoor,0.4117861999984598,6121.694842406877,1.0267854482399994,0.4107141792959998,1.0,,,,,,,0,128,0,,0targ
13,14905,1,MSTstudy,1,/content/G/Shareddrives/LC-Aging/Young Adult - Behavioral + Pupillometry Study/Data Collection/metacog YA/subject13_MST_session1_run1_9_15_11.mat,126.0,targ,112.0,1,0.4,indoor,0.34118439999292605,5586.888252148997,0.9370829003939948,0.37483316015759793,1.0,,,,,,,0,128,0,,0targ
13,14905,1,MSTstudy,1,/content/G/Shareddrives/LC-Aging/Young Adult - Behavioral + Pupillometry Study/Data Collection/metacog YA/subject13_MST_session1_run1_9_15_11.mat,127.0,targ,119.0,1,0.4,indoor,0.49407630000496283,6064.63323782235,1.0172145652167643,0.40688582608670576,1.0,,,,,,,0,128,0,,0targ
13,14905,1,MSTstudy,1,/content/G/Shareddrives/LC-Aging/Young Adult - Behavioral + Pupillometry Study/Data Collection/metacog YA/subject13_MST_session1_run1_9_15_11.mat,128.0,lure,134.0,1,0.4,outdoor,0.5174491999932798,5607.259312320917,0.9404997169273595,0.3761998867709438,1.0,,,,,3.0,,0,128,0,,3lure
16,17186,3,MSTstudy,2,/content/G/Shareddrives/LC-Aging/Young Adult - Behavioral + Pupillometry Study/Data Collection/metacog YA/subject16_MST_session3_run2_10_31_13.mat,1.0,targ,173.0,0,0.05,outdoor,1.787865399994189,1660.5587392550144,1.932455183585493,0.09662275917927467,1.0,,,,,,,0,128,0,,0targ
16,17186,3,MSTstudy,2,/content/G/Shareddrives/LC-Aging/Young Adult - Behavioral + Pupillometry Study/Data Collection/metacog YA/subject16_MST_session3_run2_10_31_13.mat,2.0,lure,63.0,1,0.4,indoor,0.8820506000192836,5396.289398280803,0.78498332920412,0.313993331681648,1.0,,,,,5.0,,0,128,0,,5lure
16,17186,3,MSTstudy,2,/content/G/Shareddrives/LC-Aging/Young Adult - Behavioral + Pupillometry Study/Data Collection/metacog YA/subject16_MST_session3_run2_10_31_13.mat,3.0,lure,17.0,1,0.4,indoor,0.8820468000194523,5730.26217765043,0.8335654279137713,0.33342617116550854,1.0,,,,,4.0,,0,128,0,,4lure
16,17186,3,MSTstudy,2,/content/G/Shareddrives/LC-Aging/Young Adult - Behavioral + Pupillometry Study/Data Collection/metacog YA/subject16_MST_session3_run2_10_31_13.mat,4.0,lure,62.0,1,0.4,indoor,1.7994843999913428,5883.699140401146,0.8558854795183791,0.34235419180735166,1.0,,,,,3.0,,0,128,0,,3lure
16,17186,3,MSTstudy,2,/content/G/Shareddrives/LC-Aging/Young Adult - Behavioral + Pupillometry Study/Data Collection/metacog YA/subject16_MST_session3_run2_10_31_13.mat,5.0,lure,48.0,1,0.4,indoor,1.375981999997748,6151.703438395415,0.8948713252640833,0.3579485301056334,1.0,,,,,3.0,,0,128,0,,3lure
16,17186,3,MSTstudy,2,/content/G/Shareddrives/LC-Aging/Young Adult - Behavioral + Pupillometry Study/Data Collection/metacog YA/subject16_MST_session3_run2_10_31_13.mat,6.0,lure,58.0,1,0.4,indoor,0.764507500018226,5849.997134670487,0.8509829417360768,0.34039317669443075,1.0,,,,,3.0,,0,128,0,,3lure
16,17186,3,MSTstudy,2,/content/G/Shareddrives/LC-Aging/Young Adult - Behavioral + Pupillometry Study/Data Collection/metacog YA/subject16_MST_session3_run2_10_31_13.mat,7.0,lure,37.0,0,0.05,outdoor,0.8581265000102576,1719.9957020057307,2.0016242313577686,0.10008121156788843,1.0,,,,,3.0,,0,128,0,,3lure
16,17186,3,MSTstudy,2,/content/G/Shareddrives/LC-Aging/Young Adult - Behavioral + Pupillometry Study/Data Collection/metacog YA/subject16_MST_session3_run2_10_31_13.mat,8.0,targ,190.0,1,0.4,indoor,0.9879578999825753,5154.590257879656,0.7498240221517013,0.29992960886068054,1.0,,,,,,,0,128,0,,0targ
16,17186,3,MSTstudy,2,/content/G/Shareddrives/LC-Aging/Young Adult - Behavioral + Pupillometry Study/Data Collection/metacog YA/subject16_MST_session3_run2_10_31_13.mat,9.0,targ,133.0,0,0.05,outdoor,1.0585606999811716,1188.525787965616,1.3831325357449271,0.06915662678724636,1.0,,,,,,,0,128,0,,0targ
16,17186,3,MSTstudy,2,/content/G/Shareddrives/LC-Aging/Young Adult - Behavioral + Pupillometry Study/Data Collection/metacog YA/subject16_MST_session3_run2_10_31_13.mat,10.0,lure,8.0,0,0.05,,2.0110497000277974,1263.2765042979943,1.470122779352955,0.07350613896764775,1.0,,,,,5.0,,0,128,0,,5lure
16,17186,3,MSTstudy,2,/content/G/Shareddrives/LC-Aging/Young Adult - Behavioral + Pupillometry Study/Data Collection/metacog YA/subject16_MST_session3_run2_10_31_13.mat,11.0,targ,178.0,0,0.05,indoor,0.8583959999959916,1550.8352435530087,1.80476579023974,0.09023828951198701,1.0,,,,,,,0,128,0,,0targ
16,17186,3,MSTstudy,2,/content/G/Shareddrives/LC-Aging/Young Adult - Behavioral + Pupillometry Study/Data Collection/metacog YA/subject16_MST_session3_run2_10_31_13.mat,12.0,lure,31.0,1,0.4,outdoor,0.6704200999811292,5909.13323782235,0.8595853074919046,0.34383412299676186,1.0,,,,,2.0,,0,128,0,,2lure
16,17186,3,MSTstudy,2,/content/G/Shareddrives/LC-Aging/Young Adult - Behavioral + Pupillometry Study/Data Collection/metacog YA/subject16_MST_session3_run2_10_31_13.mat,13.0,lure,61.0,0,0.05,outdoor,0.9409173000021838,1585.8710601719197,1.8455382988152211,0.09227691494076107,1.0,,,,,1.0,,0,128,0,,1lure
16,17186,3,MSTstudy,2,/content/G/Shareddrives/LC-Aging/Young Adult - Behavioral + Pupillometry Study/Data Collection/metacog YA/subject16_MST_session3_run2_10_31_13.mat,14.0,targ,151.0,1,0.4,outdoor,0.7762016000051517,5447.393982808023,0.7924173721063689,0.3169669488425476,1.0,,,,,,,0,128,0,,0targ
16,17186,3,MSTstudy,2,/content/G/Shareddrives/LC-Aging/Young Adult - Behavioral + Pupillometry Study/Data Collection/metacog YA/subject16_MST_session3_run2_10_31_13.mat,15.0,targ,164.0,0,0.05,,2.011095599998953,1217.904011461318,1.4173210886318142,0.07086605443159072,1.0,,,,,,,0,128,0,,0targ
16,17186,3,MSTstudy,2,/content/G/Shareddrives/LC-Aging/Young Adult - Behavioral + Pupillometry Study/Data Collection/metacog YA/subject16_MST_session3_run2_10_31_13.mat,16.0,lure,7.0,0,0.05,indoor,0.6469556000083685,1291.1103151862465,1.5025140407148219,0.0751257020357411,1.0,,,,,2.0,,0,128,0,,2lure
16,17186,3,MSTstudy,2,/content/G/Shareddrives/LC-Aging/Young Adult - Behavioral + Pupillometry Study/Data Collection/metacog YA/subject16_MST_session3_run2_10_31_13.mat,17.0,targ,183.0,1,0.4,outdoor,1.0703101999824867,5156.5744985673355,0.7501126641695762,0.3000450656678305,1.0,,,,,,,0,128,0,,0targ
16,17186,3,MSTstudy,2,/content/G/Shareddrives/LC-Aging/Young Adult - Behavioral + Pupillometry Study/Data Collection/metacog YA/subject16_MST_session3_run2_10_31_13.mat,18.0,targ,141.0,1,0.4,indoor,0.38831119998940267,4848.800859598854,0.7053416821248187,0.2821366728499275,0.9938271604938271,,,,,,,0,128,0,,0targ
16,17186,3,MSTstudy,2,/content/G/Shareddrives/LC-Aging/Young Adult - Behavioral + Pupillometry Study/Data Collection/metacog YA/subject16_MST_session3_run2_10_31_13.mat,19.0,targ,166.0,0,0.05,indoor,0.7761406999779865,1689.7263610315185,1.9663986512644227,0.09831993256322114,1.0,,,,,,,0,128,0,,0targ
16,17186,3,MSTstudy,2,/content/G/Shareddrives/LC-Aging/Young Adult - Behavioral + Pupillometry Study/Data Collection/metacog YA/subject16_MST_session3_run2_10_31_13.mat,20.0,lure,33.0,1,0.4,indoor,0.611611800006358,4910.945558739255,0.7143817000377131,0.28575268001508525,1.0,,,,,1.0,,0,128,0,,1lure
16,17186,3,MSTstudy,2,/content/G/Shareddrives/LC-Aging/Young Adult - Behavioral + Pupillometry Study/Data Collection/metacog YA/subject16_MST_session3_run2_10_31_13.mat,21.0,lure,43.0,1,0.4,,2.011124100012239,4420.349570200573,0.6430160552485413,0.2572064220994166,1.0,,,,,4.0,,0,128,0,,4lure
16,17186,3,MSTstudy,2,/content/G/Shareddrives/LC-Aging/Young Adult - Behavioral + Pupillometry Study/Data Collection/metacog YA/subject16_MST_session3_run2_10_31_13.mat,22.0,targ,188.0,0,0.05,indoor,0.5409381999925245,893.8123209169055,1.0401632967728447,0.052008164838642235,1.0,,,,,,,0,128,0,,0targ
16,17186,3,MSTstudy,2,/content/G/Shareddrives/LC-Aging/Young Adult - Behavioral + Pupillometry Study/Data Collection/metacog YA/subject16_MST_session3_run2_10_31_13.mat,23.0,lure,30.0,0,0.05,indoor,1.1056226000073366,1077.3409742120343,1.2537425511602867,0.06268712755801434,1.0,,,,,4.0,,0,128,0,,4lure
16,17186,3,MSTstudy,2,/content/G/Shareddrives/LC-Aging/Young Adult - Behavioral + Pupillometry Study/Data Collection/metacog YA/subject16_MST_session3_run2_10_31_13.mat,24.0,lure,12.0,0,0.05,indoor,0.8821249000029638,1310.2908309455588,1.524835134348375,0.07624175671741876,1.0,,,,,2.0,,0,128,0,,2lure
16,17186,3,MSTstudy,2,/content/G/Shareddrives/LC-Aging/Young Adult - Behavioral + Pupillometry Study/Data Collection/metacog YA/subject16_MST_session3_run2_10_31_13.mat,25.0,targ,148.0,1,0.4,indoor,0.8585114000015892,5252.898280802292,0.7641246189925363,0.3056498475970145,1.0,,,,,,,0,128,0,,0targ
16,17186,3,MSTstudy,2,/content/G/Shareddrives/LC-Aging/Young Adult - Behavioral + Pupillometry Study/Data Collection/metacog YA/subject16_MST_session3_run2_10_31_13.mat,26.0,targ,170.0,1,0.4,indoor,1.6113389999954961,4721.444126074499,0.686815449504611,0.27472617980184444,1.0,,,,,,,0,128,0,,0targ
16,17186,3,MSTstudy,2,/content/G/Shareddrives/LC-Aging/Young Adult - Behavioral + Pupillometry Study/Data Collection/metacog YA/subject16_MST_session3_run2_10_31_13.mat,27.0,targ,165.0,0,0.05,outdoor,0.8233329000067897,1661.8581661891117,1.9339673759910527,0.09669836879955264,1.0,,,,,,,0,128,0,,0targ
16,17186,3,MSTstudy,2,/content/G/Shareddrives/LC-Aging/Young Adult - Behavioral + Pupillometry Study/Data Collection/metacog YA/subject16_MST_session3_run2_10_31_13.mat,28.0,lure,39.0,1,0.4,outdoor,1.0466744999866933,4837.137535816619,0.7036450505959237,0.2814580202383695,0.9197530864197531,,,,,5.0,,0,128,0,,5lure
16,17186,3,MSTstudy,2,/content/G/Shareddrives/LC-Aging/Young Adult - Behavioral + Pupillometry Study/Data Collection/metacog YA/subject16_MST_session3_run2_10_31_13.mat,29.0,targ,150.0,0,0.05,outdoor,0.7763594999851193,1559.202005730659,1.8145025087055264,0.09072512543527633,1.0,,,,,,,0,128,0,,0targ
16,17186,3,MSTstudy,2,/content/G/Shareddrives/LC-Aging/Young Adult - Behavioral + Pupillometry Study/Data Collection/metacog YA/subject16_MST_session3_run2_10_31_13.mat,30.0,lure,57.0,0,0.05,indoor,0.6234354999905918,1360.1747851002865,1.5828869837080024,0.07914434918540013,1.0,,,,,1.0,,0,128,0,,1lure
16,17186,3,MSTstudy,2,/content/G/Shareddrives/LC-Aging/Young Adult - Behavioral + Pupillometry Study/Data Collection/metacog YA/subject16_MST_session3_run2_10_31_13.mat,31.0,targ,147.0,1,0.4,indoor,0.8822647000197321,5310.690544412608,0.7725315001182077,0.30901260004728315,1.0,,,,,,,0,128,0,,0targ
16,17186,3,MSTstudy,2,/content/G/Shareddrives/LC-Aging/Young Adult - Behavioral + Pupillometry Study/Data Collection/metacog YA/subject16_MST_session3_run2_10_31_13.mat,32.0,lure,51.0,0,0.05,indoor,0.8115518999984488,1597.9842406876792,1.8596348663885478,0.09298174331942739,1.0,,,,,3.0,,0,128,0,,3lure
16,17186,3,MSTstudy,2,/content/G/Shareddrives/LC-Aging/Young Adult - Behavioral + Pupillometry Study/Data Collection/metacog YA/subject16_MST_session3_run2_10_31_13.mat,33.0,lure,4.0,0,0.05,indoor,1.1996446999837644,1088.6002865329513,1.2668454399312827,0.06334227199656414,1.0,,,,,5.0,,0,128,0,,5lure
16,17186,3,MSTstudy,2,/content/G/Shareddrives/LC-Aging/Young Adult - Behavioral + Pupillometry Study/Data Collection/metacog YA/subject16_MST_session3_run2_10_31_13.mat,34.0,lure,64.0,1,0.4,indoor,0.7410546999890357,5566.8223495702005,0.8097902870898115,0.32391611483592464,1.0,,,,,4.0,,0,128,0,,4lure
16,17186,3,MSTstudy,2,/content/G/Shareddrives/LC-Aging/Young Adult - Behavioral + Pupillometry Study/Data Collection/metacog YA/subject16_MST_session3_run2_10_31_13.mat,35.0,lure,56.0,1,0.4,indoor,0.7409007000096608,5681.047277936963,0.826406272247318,0.3305625088989272,1.0,,,,,3.0,,0,128,0,,3lure
16,17186,3,MSTstudy,2,/content/G/Shareddrives/LC-Aging/Young Adult - Behavioral + Pupillometry Study/Data Collection/metacog YA/subject16_MST_session3_run2_10_31_13.mat,36.0,targ,181.0,0,0.05,indoor,0.8351583000039682,1273.070200573066,1.4815200751461257,0.07407600375730629,1.0,,,,,,,0,128,0,,0targ
16,17186,3,MSTstudy,2,/content/G/Shareddrives/LC-Aging/Young Adult - Behavioral + Pupillometry Study/Data Collection/metacog YA/subject16_MST_session3_run2_10_31_13.mat,37.0,targ,142.0,0,0.05,indoor,1.058438500011107,1175.0730659025787,1.3674770928692874,0.06837385464346438,1.0,,,,,,,0,128,0,,0targ
16,17186,3,MSTstudy,2,/content/G/Shareddrives/LC-Aging/Young Adult - Behavioral + Pupillometry Study/Data Collection/metacog YA/subject16_MST_session3_run2_10_31_13.mat,38.0,targ,171.0,0,0.05,outdoor,0.623239000007743,1076.0243553008595,1.2522103517989753,0.06261051758994876,1.0,,,,,,,0,128,0,,0targ
16,17186,3,MSTstudy,2,/content/G/Shareddrives/LC-Aging/Young Adult - Behavioral + Pupillometry Study/Data Collection/metacog YA/subject16_MST_session3_run2_10_31_13.mat,39.0,targ,185.0,1,0.4,indoor,1.2348674999957439,4647.6246418338105,0.676077132816509,0.27043085312660364,1.0,,,,,,,0,128,0,,0targ
16,17186,3,MSTstudy,2,/content/G/Shareddrives/LC-Aging/Young Adult - Behavioral + Pupillometry Study/Data Collection/metacog YA/subject16_MST_session3_run2_10_31_13.mat,40.0,lure,29.0,1,0.4,outdoor,0.9526473000005353,5820.090257879656,0.8466324708890457,0.3386529883556183,1.0,,,,,4.0,,0,128,0,,4lure
16,17186,3,MSTstudy,2,/content/G/Shareddrives/LC-Aging/Young Adult - Behavioral + Pupillometry Study/Data Collection/metacog YA/subject16_MST_session3_run2_10_31_13.mat,41.0,targ,177.0,0,0.05,indoor,0.8349918999883812,1365.150429799427,1.5886773301517827,0.07943386650758914,1.0,,,,,,,0,128,0,,0targ
16,17186,3,MSTstudy,2,/content/G/Shareddrives/LC-Aging/Young Adult - Behavioral + Pupillometry Study/Data Collection/metacog YA/subject16_MST_session3_run2_10_31_13.mat,42.0,targ,140.0,0,0.05,indoor,0.7643418000079691,1128.8424068767908,1.3136767216068785,0.06568383608034394,1.0,,,,,,,0,128,0,,0targ
16,17186,3,MSTstudy,2,/content/G/Shareddrives/LC-Aging/Young Adult - Behavioral + Pupillometry Study/Data Collection/metacog YA/subject16_MST_session3_run2_10_31_13.mat,43.0,targ,169.0,0,0.05,indoor,0.9290823999908753,1158.416905444126,1.3480936872385965,0.06740468436192983,1.0,,,,,,,0,128,0,,0targ
16,17186,3,MSTstudy,2,/content/G/Shareddrives/LC-Aging/Young Adult - Behavioral + Pupillometry Study/Data Collection/metacog YA/subject16_MST_session3_run2_10_31_13.mat,44.0,lure,23.0,0,0.05,indoor,1.6111313000146765,1253.9183381088826,1.4592323264388252,0.07296161632194127,1.0,,,,,4.0,,0,128,0,,4lure
16,17186,3,MSTstudy,2,/content/G/Shareddrives/LC-Aging/Young Adult - Behavioral + Pupillometry Study/Data Collection/metacog YA/subject16_MST_session3_run2_10_31_13.mat,45.0,lure,1.0,1,0.4,indoor,1.6445725999947172,4477.9727793696275,0.6513983444911013,0.2605593377964406,1.0,,,,,3.0,,0,128,0,,3lure
16,17186,3,MSTstudy,2,/content/G/Shareddrives/LC-Aging/Young Adult - Behavioral + Pupillometry Study/Data Collection/metacog YA/subject16_MST_session3_run2_10_31_13.mat,46.0,lure,52.0,0,0.05,outdoor,0.8350920999946538,1343.9799426934098,1.5640404313899798,0.078202021569499,1.0,,,,,1.0,,0,128,0,,1lure
16,17186,3,MSTstudy,2,/content/G/Shareddrives/LC-Aging/Young Adult - Behavioral + Pupillometry Study/Data Collection/metacog YA/subject16_MST_session3_run2_10_31_13.mat,47.0,lure,26.0,0,0.05,indoor,0.6116304000024684,1244.1848137535817,1.447905054990785,0.07239525274953926,1.0,,,,,4.0,,0,128,0,,4lure
16,17186,3,MSTstudy,2,/content/G/Shareddrives/LC-Aging/Young Adult - Behavioral + Pupillometry Study/Data Collection/metacog YA/subject16_MST_session3_run2_10_31_13.mat,48.0,targ,168.0,0,0.05,indoor,0.011893200018675998,1333.4140401146133,1.5517444898342991,0.07758722449171496,1.0,,,,,,,0,128,0,,0targ
16,17186,3,MSTstudy,2,/content/G/Shareddrives/LC-Aging/Young Adult - Behavioral + Pupillometry Study/Data Collection/metacog YA/subject16_MST_session3_run2_10_31_13.mat,49.0,targ,135.0,0,0.05,outdoor,0.7762410000141244,1252.0372492836677,1.457043232030336,0.07285216160151681,1.0,,,,,,,0,128,0,,0targ
16,17186,3,MSTstudy,2,/content/G/Shareddrives/LC-Aging/Young Adult - Behavioral + Pupillometry Study/Data Collection/metacog YA/subject16_MST_session3_run2_10_31_13.mat,50.0,targ,163.0,1,0.4,outdoor,0.670360799995251,5567.287965616046,0.8098580189712623,0.3239432075885049,1.0,,,,,,,0,128,0,,0targ
16,17186,3,MSTstudy,2,/content/G/Shareddrives/LC-Aging/Young Adult - Behavioral + Pupillometry Study/Data Collection/metacog YA/subject16_MST_session3_run2_10_31_13.mat,51.0,lure,22.0,1,0.4,outdoor,1.1408788000117056,4636.206303724928,0.6744161386775468,0.26976645547101874,1.0,,,,,1.0,,0,128,0,,1lure
16,17186,3,MSTstudy,2,/content/G/Shareddrives/LC-Aging/Young Adult - Behavioral + Pupillometry Study/Data Collection/metacog YA/subject16_MST_session3_run2_10_31_13.mat,52.0,targ,180.0,1,0.4,outdoor,0.6351523000048473,4488.732091690545,0.6529634719670872,0.2611853887868349,0.808641975308642,,,,,,,0,128,0,,0targ
16,17186,3,MSTstudy,2,/content/G/Shareddrives/LC-Aging/Young Adult - Behavioral + Pupillometry Study/Data Collection/metacog YA/subject16_MST_session3_run2_10_31_13.mat,53.0,lure,34.0,0,0.05,indoor,0.6585941000084858,1597.7521489971348,1.8593647724859008,0.09296823862429505,1.0,,,,,2.0,,0,128,0,,2lure
16,17186,3,MSTstudy,2,/content/G/Shareddrives/LC-Aging/Young Adult - Behavioral + Pupillometry Study/Data Collection/metacog YA/subject16_MST_session3_run2_10_31_13.mat,54.0,lure,5.0,1,0.4,indoor,0.964288499992108,5228.121776504298,0.7605204492761983,0.30420817971047937,1.0,,,,,4.0,,0,128,0,,4lure
16,17186,3,MSTstudy,2,/content/G/Shareddrives/LC-Aging/Young Adult - Behavioral + Pupillometry Study/Data Collection/metacog YA/subject16_MST_session3_run2_10_31_13.mat,55.0,lure,10.0,1,0.4,outdoor,0.9879263000038918,5906.521489971346,0.8592053837384129,0.3436821534953652,1.0,,,,,2.0,,0,128,0,,2lure
16,17186,3,MSTstudy,2,/content/G/Shareddrives/LC-Aging/Young Adult - Behavioral + Pupillometry Study/Data Collection/metacog YA/subject16_MST_session3_run2_10_31_13.mat,56.0,targ,189.0,1,0.4,indoor,0.6351581999915652,5316.283667621777,0.7733451163187735,0.3093380465275094,1.0,,,,,,,0,128,0,,0targ
16,17186,3,MSTstudy,2,/content/G/Shareddrives/LC-Aging/Young Adult - Behavioral + Pupillometry Study/Data Collection/metacog YA/subject16_MST_session3_run2_10_31_13.mat,57.0,lure,13.0,0,0.05,indoor,0.6939978000009432,1888.2679083094556,2.1974489797619636,0.1098724489880982,1.0,,,,,1.0,,0,128,0,,1lure
16,17186,3,MSTstudy,2,/content/G/Shareddrives/LC-Aging/Young Adult - Behavioral + Pupillometry Study/Data Collection/metacog YA/subject16_MST_session3_run2_10_31_13.mat,58.0,targ,162.0,0,0.05,outdoor,1.2348233999800868,1293.1103151862465,1.5048415165672597,0.075242075828363,1.0,,,,,,,0,128,0,,0targ
16,17186,3,MSTstudy,2,/content/G/Shareddrives/LC-Aging/Young Adult - Behavioral + Pupillometry Study/Data Collection/metacog YA/subject16_MST_session3_run2_10_31_13.mat,59.0,lure,32.0,0,0.05,indoor,1.3879139999917243,1430.5859598853867,1.6648271382350595,0.08324135691175298,1.0,,,,,4.0,,0,128,0,,4lure
16,17186,3,MSTstudy,2,/content/G/Shareddrives/LC-Aging/Young Adult - Behavioral + Pupillometry Study/Data Collection/metacog YA/subject16_MST_session3_run2_10_31_13.mat,60.0,targ,187.0,0,0.05,indoor,1.058518699981505,1139.7736389684815,1.3263978109722814,0.06631989054861408,1.0,,,,,,,0,128,0,,0targ
16,17186,3,MSTstudy,2,/content/G/Shareddrives/LC-Aging/Young Adult - Behavioral + Pupillometry Study/Data Collection/metacog YA/subject16_MST_session3_run2_10_31_13.mat,61.0,targ,149.0,0,0.05,indoor,0.011712900013662875,1241.9383954154728,1.4452908127725739,0.0722645406386287,1.0,,,,,,,0,128,0,,0targ
16,17186,3,MSTstudy,2,/content/G/Shareddrives/LC-Aging/Young Adult - Behavioral + Pupillometry Study/Data Collection/metacog YA/subject16_MST_session3_run2_10_31_13.mat,62.0,targ,136.0,1,0.4,outdoor,0.7526657000125851,5492.793696275072,0.7990215431565041,0.31960861726260165,1.0,,,,,,,0,128,0,,0targ
16,17186,3,MSTstudy,2,/content/G/Shareddrives/LC-Aging/Young Adult - Behavioral + Pupillometry Study/Data Collection/metacog YA/subject16_MST_session3_run2_10_31_13.mat,63.0,targ,153.0,1,0.4,outdoor,0.7998746999946889,6444.502865329513,0.9374640500013838,0.3749856200005535,1.0,,,,,,,0,128,0,,0targ
16,17186,3,MSTstudy,2,/content/G/Shareddrives/LC-Aging/Young Adult - Behavioral + Pupillometry Study/Data Collection/metacog YA/subject16_MST_session3_run2_10_31_13.mat,64.0,lure,3.0,0,0.05,outdoor,1.223060100019211,1666.9312320916906,1.9398710951840923,0.09699355475920463,1.0,,,,,4.0,,0,128,0,,4lure
16,17186,3,MSTstudy,2,/content/G/Shareddrives/LC-Aging/Young Adult - Behavioral + Pupillometry Study/Data Collection/metacog YA/subject16_MST_session3_run2_10_31_13.mat,65.0,targ,130.0,0,0.05,outdoor,1.575983599992469,1490.3338108882522,1.7343579784571768,0.08671789892285885,1.0,,,,,,,0,128,0,,0targ
16,17186,3,MSTstudy,2,/content/G/Shareddrives/LC-Aging/Young Adult - Behavioral + Pupillometry Study/Data Collection/metacog YA/subject16_MST_session3_run2_10_31_13.mat,66.0,lure,44.0,0,0.05,,2.01115690000006,1422.0057306590259,1.6548420000686905,0.08274210000343453,1.0,,,,,1.0,,0,128,0,,1lure
16,17186,3,MSTstudy,2,/content/G/Shareddrives/LC-Aging/Young Adult - Behavioral + Pupillometry Study/Data Collection/metacog YA/subject16_MST_session3_run2_10_31_13.mat,67.0,lure,2.0,1,0.4,indoor,0.7291574999981094,5660.497134670487,0.8234168996087639,0.3293667598435056,1.0,,,,,1.0,,0,128,0,,1lure
16,17186,3,MSTstudy,2,/content/G/Shareddrives/LC-Aging/Young Adult - Behavioral + Pupillometry Study/Data Collection/metacog YA/subject16_MST_session3_run2_10_31_13.mat,68.0,lure,41.0,1,0.4,indoor,0.599889200006146,5290.505730659026,0.769595270955869,0.3078381083823476,1.0,,,,,3.0,,0,128,0,,3lure
16,17186,3,MSTstudy,2,/content/G/Shareddrives/LC-Aging/Young Adult - Behavioral + Pupillometry Study/Data Collection/metacog YA/subject16_MST_session3_run2_10_31_13.mat,69.0,lure,9.0,1,0.4,outdoor,0.9172958999988623,5069.7736389684815,0.7374859826266265,0.2949943930506506,1.0,,,,,3.0,,0,128,0,,3lure
16,17186,3,MSTstudy,2,/content/G/Shareddrives/LC-Aging/Young Adult - Behavioral + Pupillometry Study/Data Collection/metacog YA/subject16_MST_session3_run2_10_31_13.mat,70.0,lure,40.0,0,0.05,outdoor,1.2583724999858532,1624.6819484240689,1.8907040014244951,0.09453520007122476,1.0,,,,,3.0,,0,128,0,,3lure
16,17186,3,MSTstudy,2,/content/G/Shareddrives/LC-Aging/Young Adult - Behavioral + Pupillometry Study/Data Collection/metacog YA/subject16_MST_session3_run2_10_31_13.mat,71.0,lure,16.0,1,0.4,,2.0111503999796696,5503.436962750717,0.8005697897635745,0.3202279159054298,1.0,,,,,1.0,,0,128,0,,1lure
16,17186,3,MSTstudy,2,/content/G/Shareddrives/LC-Aging/Young Adult - Behavioral + Pupillometry Study/Data Collection/metacog YA/subject16_MST_session3_run2_10_31_13.mat,72.0,targ,152.0,1,0.4,indoor,0.7292271000042092,5892.1719197707735,0.8571179913549943,0.34284719654199775,1.0,,,,,,,0,128,0,,0targ
16,17186,3,MSTstudy,2,/content/G/Shareddrives/LC-Aging/Young Adult - Behavioral + Pupillometry Study/Data Collection/metacog YA/subject16_MST_session3_run2_10_31_13.mat,73.0,lure,45.0,1,0.4,outdoor,0.7645402000052854,5495.712034383954,0.7994460657488587,0.3197784262995435,1.0,,,,,2.0,,0,128,0,,2lure
16,17186,3,MSTstudy,2,/content/G/Shareddrives/LC-Aging/Young Adult - Behavioral + Pupillometry Study/Data Collection/metacog YA/subject16_MST_session3_run2_10_31_13.mat,74.0,targ,176.0,1,0.4,outdoor,0.7291991999954917,5159.138968481376,0.7504857105320283,0.30019428421281136,1.0,,,,,,,0,128,0,,0targ
16,17186,3,MSTstudy,2,/content/G/Shareddrives/LC-Aging/Young Adult - Behavioral + Pupillometry Study/Data Collection/metacog YA/subject16_MST_session3_run2_10_31_13.mat,75.0,targ,179.0,0,0.05,indoor,0.9407964999845717,1688.0845272206304,1.9644879869901435,0.09822439934950718,1.0,,,,,,,0,128,0,,0targ
16,17186,3,MSTstudy,2,/content/G/Shareddrives/LC-Aging/Young Adult - Behavioral + Pupillometry Study/Data Collection/metacog YA/subject16_MST_session3_run2_10_31_13.mat,76.0,lure,60.0,0,0.05,outdoor,0.670210300013423,1355.4785100286533,1.577421750295186,0.0788710875147593,1.0,,,,,5.0,,0,128,0,,5lure
16,17186,3,MSTstudy,2,/content/G/Shareddrives/LC-Aging/Young Adult - Behavioral + Pupillometry Study/Data Collection/metacog YA/subject16_MST_session3_run2_10_31_13.mat,77.0,lure,27.0,1,0.4,indoor,1.564240100007737,4662.957020057306,0.6783074915712362,0.27132299662849446,1.0,,,,,1.0,,0,128,0,,1lure
16,17186,3,MSTstudy,2,/content/G/Shareddrives/LC-Aging/Young Adult - Behavioral + Pupillometry Study/Data Collection/metacog YA/subject16_MST_session3_run2_10_31_13.mat,78.0,targ,156.0,1,0.4,outdoor,1.2114132999849971,6414.869627507163,0.9331533846600667,0.37326135386402676,1.0,,,,,,,0,128,0,,0targ
16,17186,3,MSTstudy,2,/content/G/Shareddrives/LC-Aging/Young Adult - Behavioral + Pupillometry Study/Data Collection/metacog YA/subject16_MST_session3_run2_10_31_13.mat,79.0,lure,24.0,0,0.05,indoor,1.0113996999862138,1913.9283667621776,2.2273110284675637,0.11136555142337819,0.8024691358024691,,,,,1.0,,0,128,0,,1lure
16,17186,3,MSTstudy,2,/content/G/Shareddrives/LC-Aging/Young Adult - Behavioral + Pupillometry Study/Data Collection/metacog YA/subject16_MST_session3_run2_10_31_13.mat,80.0,lure,47.0,1,0.4,outdoor,0.529249900020659,5693.613180515759,0.8282341994233328,0.33129367976933316,1.0,,,,,1.0,,0,128,0,,1lure
16,17186,3,MSTstudy,2,/content/G/Shareddrives/LC-Aging/Young Adult - Behavioral + Pupillometry Study/Data Collection/metacog YA/subject16_MST_session3_run2_10_31_13.mat,81.0,lure,59.0,1,0.4,outdoor,0.7527054999954998,6255.600286532951,0.9099849130881169,0.3639939652352468,1.0,,,,,4.0,,0,128,0,,4lure
16,17186,3,MSTstudy,2,/content/G/Shareddrives/LC-Aging/Young Adult - Behavioral + Pupillometry Study/Data Collection/metacog YA/subject16_MST_session3_run2_10_31_13.mat,82.0,targ,175.0,1,0.4,,2.011228099989239,4486.111747851003,0.6525822977788611,0.26103291911154447,1.0,,,,,,,0,128,0,,0targ
16,17186,3,MSTstudy,2,/content/G/Shareddrives/LC-Aging/Young Adult - Behavioral + Pupillometry Study/Data Collection/metacog YA/subject16_MST_session3_run2_10_31_13.mat,83.0,targ,186.0,1,0.4,indoor,0.011867900000652298,4887.458452722063,0.7109650955315464,0.2843860382126186,0.8827160493827161,,,,,,,0,128,0,,0targ
16,17186,3,MSTstudy,2,/content/G/Shareddrives/LC-Aging/Young Adult - Behavioral + Pupillometry Study/Data Collection/metacog YA/subject16_MST_session3_run2_10_31_13.mat,84.0,lure,19.0,0,0.05,outdoor,1.0232149000221398,2001.9928366762178,2.329794992058906,0.1164897496029453,0.37037037037037035,,,,,1.0,,0,128,0,,1lure
16,17186,3,MSTstudy,2,/content/G/Shareddrives/LC-Aging/Young Adult - Behavioral + Pupillometry Study/Data Collection/metacog YA/subject16_MST_session3_run2_10_31_13.mat,85.0,targ,143.0,1,0.4,indoor,1.0115409999853,5460.861031518624,0.7943763865237147,0.31775055460948587,0.9012345679012346,,,,,,,0,128,0,,0targ
16,17186,3,MSTstudy,2,/content/G/Shareddrives/LC-Aging/Young Adult - Behavioral + Pupillometry Study/Data Collection/metacog YA/subject16_MST_session3_run2_10_31_13.mat,86.0,targ,146.0,0,0.05,indoor,1.3880382000061218,2040.4255014326648,2.374520541641644,0.1187260270820822,0.9444444444444444,,,,,,,0,128,0,,0targ
16,17186,3,MSTstudy,2,/content/G/Shareddrives/LC-Aging/Young Adult - Behavioral + Pupillometry Study/Data Collection/metacog YA/subject16_MST_session3_run2_10_31_13.mat,87.0,targ,144.0,1,0.4,indoor,1.2469599000178277,5583.260744985673,0.8121815351137078,0.3248726140454831,1.0,,,,,,,0,128,0,,0targ
16,17186,3,MSTstudy,2,/content/G/Shareddrives/LC-Aging/Young Adult - Behavioral + Pupillometry Study/Data Collection/metacog YA/subject16_MST_session3_run2_10_31_13.mat,88.0,lure,25.0,0,0.05,outdoor,0.6116001000045799,2163.702005730659,2.5179820851049213,0.12589910425524609,0.05555555555555555,,,,,5.0,,0,128,0,,5lure
16,17186,3,MSTstudy,2,/content/G/Shareddrives/LC-Aging/Young Adult - Behavioral + Pupillometry Study/Data Collection/metacog YA/subject16_MST_session3_run2_10_31_13.mat,89.0,targ,155.0,0,0.05,outdoor,0.7881072000018321,1890.5873925501432,2.200148251542119,0.11000741257710597,1.0,,,,,,,0,128,0,,0targ
16,17186,3,MSTstudy,2,/content/G/Shareddrives/LC-Aging/Young Adult - Behavioral + Pupillometry Study/Data Collection/metacog YA/subject16_MST_session3_run2_10_31_13.mat,90.0,targ,167.0,0,0.05,indoor,0.7762157999968622,1556.6275071633238,1.811506467081722,0.0905753233540861,1.0,,,,,,,0,128,0,,0targ
16,17186,3,MSTstudy,2,/content/G/Shareddrives/LC-Aging/Young Adult - Behavioral + Pupillometry Study/Data Collection/metacog YA/subject16_MST_session3_run2_10_31_13.mat,91.0,targ,157.0,0,0.05,indoor,0.5057818000204861,1937.8180515759311,2.255112360730747,0.11275561803653736,1.0,,,,,,,0,128,0,,0targ
16,17186,3,MSTstudy,2,/content/G/Shareddrives/LC-Aging/Young Adult - Behavioral + Pupillometry Study/Data Collection/metacog YA/subject16_MST_session3_run2_10_31_13.mat,92.0,lure,35.0,0,0.05,outdoor,0.5409641000151169,1348.8681948424069,1.5697290758086893,0.07848645379043448,1.0,,,,,4.0,,0,128,0,,4lure
16,17186,3,MSTstudy,2,/content/G/Shareddrives/LC-Aging/Young Adult - Behavioral + Pupillometry Study/Data Collection/metacog YA/subject16_MST_session3_run2_10_31_13.mat,93.0,lure,21.0,0,0.05,indoor,0.7882402999966871,1441.7163323782236,1.6777799748379185,0.08388899874189594,1.0,,,,,4.0,,0,128,0,,4lure
16,17186,3,MSTstudy,2,/content/G/Shareddrives/LC-Aging/Young Adult - Behavioral + Pupillometry Study/Data Collection/metacog YA/subject16_MST_session3_run2_10_31_13.mat,94.0,lure,53.0,1,0.4,indoor,0.7293538999801967,5903.249283667622,0.8587293849161558,0.34349175396646237,1.0,,,,,2.0,,0,128,0,,2lure
16,17186,3,MSTstudy,2,/content/G/Shareddrives/LC-Aging/Young Adult - Behavioral + Pupillometry Study/Data Collection/metacog YA/subject16_MST_session3_run2_10_31_13.mat,95.0,lure,54.0,0,0.05,outdoor,1.105561000003945,1574.9813753581661,1.8328655595928849,0.09164327797964425,1.0,,,,,5.0,,0,128,0,,5lure
16,17186,3,MSTstudy,2,/content/G/Shareddrives/LC-Aging/Young Adult - Behavioral + Pupillometry Study/Data Collection/metacog YA/subject16_MST_session3_run2_10_31_13.mat,96.0,targ,192.0,0,0.05,indoor,0.5880328000057489,1512.8796561604584,1.7605954336791088,0.08802977168395545,1.0,,,,,,,0,128,0,,0targ
16,17186,3,MSTstudy,2,/content/G/Shareddrives/LC-Aging/Young Adult - Behavioral + Pupillometry Study/Data Collection/metacog YA/subject16_MST_session3_run2_10_31_13.mat,97.0,lure,36.0,1,0.4,outdoor,0.5880633999768179,5559.634670487106,0.8087447152460004,0.3234978860984002,1.0,,,,,2.0,,0,128,0,,2lure
16,17186,3,MSTstudy,2,/content/G/Shareddrives/LC-Aging/Young Adult - Behavioral + Pupillometry Study/Data Collection/metacog YA/subject16_MST_session3_run2_10_31_13.mat,98.0,targ,138.0,0,0.05,indoor,1.2467762999876868,1250.1260744985673,1.454819125449281,0.07274095627246406,1.0,,,,,,,0,128,0,,0targ
16,17186,3,MSTstudy,2,/content/G/Shareddrives/LC-Aging/Young Adult - Behavioral + Pupillometry Study/Data Collection/metacog YA/subject16_MST_session3_run2_10_31_13.mat,99.0,lure,38.0,0,0.05,indoor,1.6230956999934278,1320.17335243553,1.536335799412929,0.07681678997064645,1.0,,,,,5.0,,0,128,0,,5lure
16,17186,3,MSTstudy,2,/content/G/Shareddrives/LC-Aging/Young Adult - Behavioral + Pupillometry Study/Data Collection/metacog YA/subject16_MST_session3_run2_10_31_13.mat,100.0,lure,18.0,1,0.4,indoor,0.6821682000008877,5696.058739255014,0.8285899481052912,0.3314359792421165,0.9753086419753086,,,,,5.0,,0,128,0,,5lure
16,17186,3,MSTstudy,2,/content/G/Shareddrives/LC-Aging/Young Adult - Behavioral + Pupillometry Study/Data Collection/metacog YA/subject16_MST_session3_run2_10_31_13.mat,101.0,targ,184.0,1,0.4,indoor,0.635149999987334,5814.69340974212,0.8458474062815837,0.3383389625126335,1.0,,,,,,,0,128,0,,0targ
16,17186,3,MSTstudy,2,/content/G/Shareddrives/LC-Aging/Young Adult - Behavioral + Pupillometry Study/Data Collection/metacog YA/subject16_MST_session3_run2_10_31_13.mat,102.0,targ,182.0,0,0.05,indoor,1.1055769999802578,1391.974212034384,1.6198931828632421,0.0809946591431621,1.0,,,,,,,0,128,0,,0targ
16,17186,3,MSTstudy,2,/content/G/Shareddrives/LC-Aging/Young Adult - Behavioral + Pupillometry Study/Data Collection/metacog YA/subject16_MST_session3_run2_10_31_13.mat,103.0,targ,160.0,0,0.05,indoor,0.8349925999937113,1542.10888252149,1.794610592949482,0.0897305296474741,1.0,,,,,,,0,128,0,,0targ
16,17186,3,MSTstudy,2,/content/G/Shareddrives/LC-Aging/Young Adult - Behavioral + Pupillometry Study/Data Collection/metacog YA/subject16_MST_session3_run2_10_31_13.mat,104.0,lure,20.0,1,0.4,outdoor,0.5763057000003755,4068.0787965616046,0.5917721978007687,0.2367088791203075,0.7530864197530864,,,,,1.0,,0,128,0,,1lure
16,17186,3,MSTstudy,2,/content/G/Shareddrives/LC-Aging/Young Adult - Behavioral + Pupillometry Study/Data Collection/metacog YA/subject16_MST_session3_run2_10_31_13.mat,105.0,lure,49.0,0,0.05,outdoor,0.8584466000029352,1785.6962750716332,2.078082480008883,0.10390412400044415,1.0,,,,,2.0,,0,128,0,,2lure
16,17186,3,MSTstudy,2,/content/G/Shareddrives/LC-Aging/Young Adult - Behavioral + Pupillometry Study/Data Collection/metacog YA/subject16_MST_session3_run2_10_31_13.mat,106.0,targ,145.0,1,0.4,indoor,1.6232383000024129,4979.164756446991,0.7243053584963038,0.28972214339852154,1.0,,,,,,,0,128,0,,0targ
16,17186,3,MSTstudy,2,/content/G/Shareddrives/LC-Aging/Young Adult - Behavioral + Pupillometry Study/Data Collection/metacog YA/subject16_MST_session3_run2_10_31_13.mat,107.0,lure,15.0,1,0.4,indoor,0.32907500001601875,5461.904011461318,0.7945281059381645,0.3178112423752658,0.9444444444444444,,,,,2.0,,0,128,0,,2lure
16,17186,3,MSTstudy,2,/content/G/Shareddrives/LC-Aging/Young Adult - Behavioral + Pupillometry Study/Data Collection/metacog YA/subject16_MST_session3_run2_10_31_13.mat,108.0,targ,131.0,1,0.4,outdoor,0.8235527999931946,5726.84670487106,0.8330685885126061,0.33322743540504246,1.0,,,,,,,0,128,0,,0targ
16,17186,3,MSTstudy,2,/content/G/Shareddrives/LC-Aging/Young Adult - Behavioral + Pupillometry Study/Data Collection/metacog YA/subject16_MST_session3_run2_10_31_13.mat,109.0,lure,55.0,1,0.4,outdoor,1.6231282000080682,6097.13323782235,0.8869331487580515,0.35477325950322064,1.0,,,,,1.0,,0,128,0,,1lure
16,17186,3,MSTstudy,2,/content/G/Shareddrives/LC-Aging/Young Adult - Behavioral + Pupillometry Study/Data Collection/metacog YA/subject16_MST_session3_run2_10_31_13.mat,110.0,lure,6.0,1,0.4,indoor,0.5879114999843296,5961.309455587392,0.8671752379243849,0.346870095169754,1.0,,,,,2.0,,0,128,0,,2lure
16,17186,3,MSTstudy,2,/content/G/Shareddrives/LC-Aging/Young Adult - Behavioral + Pupillometry Study/Data Collection/metacog YA/subject16_MST_session3_run2_10_31_13.mat,111.0,targ,161.0,1,0.4,indoor,0.635114100005012,5799.441260744986,0.8436287182510452,0.33745148730041813,1.0,,,,,,,0,128,0,,0targ
16,17186,3,MSTstudy,2,/content/G/Shareddrives/LC-Aging/Young Adult - Behavioral + Pupillometry Study/Data Collection/metacog YA/subject16_MST_session3_run2_10_31_13.mat,112.0,targ,134.0,0,0.05,outdoor,0.9405325000116136,2080.7707736389684,2.4214718650517493,0.12107359325258749,1.0,,,,,,,0,128,0,,0targ
16,17186,3,MSTstudy,2,/content/G/Shareddrives/LC-Aging/Young Adult - Behavioral + Pupillometry Study/Data Collection/metacog YA/subject16_MST_session3_run2_10_31_13.mat,113.0,lure,42.0,0,0.05,outdoor,0.9411554000107571,1569.9914040114613,1.8270585406859783,0.09135292703429893,1.0,,,,,3.0,,0,128,0,,3lure
16,17186,3,MSTstudy,2,/content/G/Shareddrives/LC-Aging/Young Adult - Behavioral + Pupillometry Study/Data Collection/metacog YA/subject16_MST_session3_run2_10_31_13.mat,114.0,lure,11.0,0,0.05,indoor,0.5998161000024993,1307.8166189111748,1.521955799966455,0.07609778999832276,1.0,,,,,4.0,,0,128,0,,4lure
16,17186,3,MSTstudy,2,/content/G/Shareddrives/LC-Aging/Young Adult - Behavioral + Pupillometry Study/Data Collection/metacog YA/subject16_MST_session3_run2_10_31_13.mat,115.0,targ,159.0,1,0.4,indoor,0.7409516999905463,4874.414040114613,0.7090675608219791,0.28362702432879167,0.9506172839506173,,,,,,,0,128,0,,0targ
16,17186,3,MSTstudy,2,/content/G/Shareddrives/LC-Aging/Young Adult - Behavioral + Pupillometry Study/Data Collection/metacog YA/subject16_MST_session3_run2_10_31_13.mat,116.0,targ,172.0,1,0.4,outdoor,0.01174749998608604,5266.909742120344,0.7661628276097323,0.30646513104389295,1.0,,,,,,,0,128,0,,0targ
16,17186,3,MSTstudy,2,/content/G/Shareddrives/LC-Aging/Young Adult - Behavioral + Pupillometry Study/Data Collection/metacog YA/subject16_MST_session3_run2_10_31_13.mat,117.0,lure,46.0,1,0.4,indoor,0.752653499977896,5519.2263610315185,0.8028666299650178,0.3211466519860071,0.9259259259259259,,,,,5.0,,0,128,0,,5lure
16,17186,3,MSTstudy,2,/content/G/Shareddrives/LC-Aging/Young Adult - Behavioral + Pupillometry Study/Data Collection/metacog YA/subject16_MST_session3_run2_10_31_13.mat,118.0,targ,132.0,1,0.4,outdoor,1.5642087000014726,5728.679083094556,0.8333351395168386,0.3333340558067355,1.0,,,,,,,0,128,0,,0targ
16,17186,3,MSTstudy,2,/content/G/Shareddrives/LC-Aging/Young Adult - Behavioral + Pupillometry Study/Data Collection/metacog YA/subject16_MST_session3_run2_10_31_13.mat,119.0,lure,14.0,0,0.05,indoor,1.8112277000036556,1670.272206303725,1.9437591135851564,0.09718795567925782,1.0,,,,,2.0,,0,128,0,,2lure
16,17186,3,MSTstudy,2,/content/G/Shareddrives/LC-Aging/Young Adult - Behavioral + Pupillometry Study/Data Collection/metacog YA/subject16_MST_session3_run2_10_31_13.mat,120.0,targ,158.0,1,0.4,indoor,0.8349226999853272,5381.681948424069,0.782858423778667,0.3131433695114668,1.0,,,,,,,0,128,0,,0targ
16,17186,3,MSTstudy,2,/content/G/Shareddrives/LC-Aging/Young Adult - Behavioral + Pupillometry Study/Data Collection/metacog YA/subject16_MST_session3_run2_10_31_13.mat,121.0,targ,154.0,0,0.05,,0.011806599999545142,1182.0530085959886,1.3755999169044437,0.0687799958452222,1.0,,,,,,,0,128,0,,0targ
16,17186,3,MSTstudy,2,/content/G/Shareddrives/LC-Aging/Young Adult - Behavioral + Pupillometry Study/Data Collection/metacog YA/subject16_MST_session3_run2_10_31_13.mat,122.0,targ,139.0,0,0.05,indoor,0.011818200000561774,1945.727793696275,2.2643172276228034,0.11321586138114018,1.0,,,,,,,0,128,0,,0targ
16,17186,3,MSTstudy,2,/content/G/Shareddrives/LC-Aging/Young Adult - Behavioral + Pupillometry Study/Data Collection/metacog YA/subject16_MST_session3_run2_10_31_13.mat,123.0,targ,174.0,1,0.4,indoor,0.011968200007686391,6124.104584527221,0.8908565961432592,0.3563426384573037,0.9567901234567902,,,,,,,0,128,0,,0targ
16,17186,3,MSTstudy,2,/content/G/Shareddrives/LC-Aging/Young Adult - Behavioral + Pupillometry Study/Data Collection/metacog YA/subject16_MST_session3_run2_10_31_13.mat,124.0,targ,129.0,1,0.4,indoor,0.01152840000577271,5914.540114613181,0.8603718309398901,0.34414873237595606,1.0,,,,,,,0,128,0,,0targ
16,17186,3,MSTstudy,2,/content/G/Shareddrives/LC-Aging/Young Adult - Behavioral + Pupillometry Study/Data Collection/metacog YA/subject16_MST_session3_run2_10_31_13.mat,125.0,targ,137.0,1,0.4,outdoor,0.5528015999880154,6105.968481375358,0.8882183872593038,0.35528735490372154,1.0,,,,,,,0,128,0,,0targ
16,17186,3,MSTstudy,2,/content/G/Shareddrives/LC-Aging/Young Adult - Behavioral + Pupillometry Study/Data Collection/metacog YA/subject16_MST_session3_run2_10_31_13.mat,126.0,targ,191.0,1,0.4,outdoor,0.42342089998419397,5842.040114613181,0.8498254559835302,0.3399301823934121,1.0,,,,,,,0,128,0,,0targ
16,17186,3,MSTstudy,2,/content/G/Shareddrives/LC-Aging/Young Adult - Behavioral + Pupillometry Study/Data Collection/metacog YA/subject16_MST_session3_run2_10_31_13.mat,127.0,lure,50.0,0,0.05,outdoor,0.8703426999854855,1868.3868194842407,2.1743126026815323,0.10871563013407662,1.0,,,,,5.0,,0,128,0,,5lure
16,17186,3,MSTstudy,2,/content/G/Shareddrives/LC-Aging/Young Adult - Behavioral + Pupillometry Study/Data Collection/metacog YA/subject16_MST_session3_run2_10_31_13.mat,128.0,lure,28.0,0,0.05,outdoor,0.4586741999955848,1411.3954154727794,1.642494373877318,0.08212471869386591,1.0,,,,,4.0,,0,128,0,,4lure
17,14520,1,MSTstudy,1,/content/G/Shareddrives/LC-Aging/Young Adult - Behavioral + Pupillometry Study/Data Collection/metacog YA/subject17_MST_session1_run1_10_19_11.mat,1.0,targ,126.0,1,0.4,,2.0111846000072546,5032.810888252149,0.8665308003188962,0.3466123201275585,0.9876543209876543,,,,,,,0,128,0,,0targ
17,14520,1,MSTstudy,1,/content/G/Shareddrives/LC-Aging/Young Adult - Behavioral + Pupillometry Study/Data Collection/metacog YA/subject17_MST_session1_run1_10_19_11.mat,2.0,lure,155.0,0,0.05,outdoor,0.023657544166781008,1081.694842406877,1.4899377994585081,0.0744968899729254,1.0,,,,,2.0,,0,128,0,,2lure
17,14520,1,MSTstudy,1,/content/G/Shareddrives/LC-Aging/Young Adult - Behavioral + Pupillometry Study/Data Collection/metacog YA/subject17_MST_session1_run1_10_19_11.mat,3.0,targ,105.0,0,0.05,outdoor,0.7291941000148654,1022.4340974212034,1.4083114289548258,0.07041557144774128,1.0,,,,,,,0,128,0,,0targ
17,14520,1,MSTstudy,1,/content/G/Shareddrives/LC-Aging/Young Adult - Behavioral + Pupillometry Study/Data Collection/metacog YA/subject17_MST_session1_run1_10_19_11.mat,4.0,targ,67.0,0,0.05,indoor,1.176101999997627,789.8151862464183,1.0878997055735788,0.05439498527867895,1.0,,,,,,,0,128,0,,0targ
17,14520,1,MSTstudy,1,/content/G/Shareddrives/LC-Aging/Young Adult - Behavioral + Pupillometry Study/Data Collection/metacog YA/subject17_MST_session1_run1_10_19_11.mat,5.0,targ,74.0,0,0.05,outdoor,0.8466378999873996,910.0945558739255,1.253573768421385,0.06267868842106925,1.0,,,,,,,0,128,0,,0targ
17,14520,1,MSTstudy,1,/content/G/Shareddrives/LC-Aging/Young Adult - Behavioral + Pupillometry Study/Data Collection/metacog YA/subject17_MST_session1_run1_10_19_11.mat,6.0,targ,97.0,0,0.05,indoor,1.0701767999562435,895.5171919770773,1.2334947547893627,0.06167473773946814,1.0,,,,,,,0,128,0,,0targ
17,14520,1,MSTstudy,1,/content/G/Shareddrives/LC-Aging/Young Adult - Behavioral + Pupillometry Study/Data Collection/metacog YA/subject17_MST_session1_run1_10_19_11.mat,7.0,targ,100.0,0,0.05,indoor,1.2113881999976002,930.6346704871061,1.2818659373100634,0.06409329686550318,1.0,,,,,,,0,128,0,,0targ
17,14520,1,MSTstudy,1,/content/G/Shareddrives/LC-Aging/Young Adult - Behavioral + Pupillometry Study/Data Collection/metacog YA/subject17_MST_session1_run1_10_19_11.mat,8.0,lure,134.0,1,0.4,outdoor,1.3642821999965236,4615.16905444126,0.7946227710814843,0.3178491084325937,1.0,,,,,3.0,,0,128,0,,3lure
17,14520,1,MSTstudy,1,/content/G/Shareddrives/LC-Aging/Young Adult - Behavioral + Pupillometry Study/Data Collection/metacog YA/subject17_MST_session1_run1_10_19_11.mat,9.0,targ,83.0,1,0.4,indoor,1.1408416999620385,5005.345272206304,0.861801871936347,0.34472074877453884,1.0,,,,,,,0,128,0,,0targ
17,14520,1,MSTstudy,1,/content/G/Shareddrives/LC-Aging/Young Adult - Behavioral + Pupillometry Study/Data Collection/metacog YA/subject17_MST_session1_run1_10_19_11.mat,10.0,lure,187.0,1,0.4,indoor,1.423196999996435,4474.710601719197,0.770439153188567,0.3081756612754268,0.9753086419753086,,,,,4.0,,0,128,0,,4lure
17,14520,1,MSTstudy,1,/content/G/Shareddrives/LC-Aging/Young Adult - Behavioral + Pupillometry Study/Data Collection/metacog YA/subject17_MST_session1_run1_10_19_11.mat,11.0,targ,113.0,0,0.05,outdoor,0.987913099990692,850.0587392550143,1.1708798061363834,0.058543990306819164,1.0,,,,,,,0,128,0,,0targ
17,14520,1,MSTstudy,1,/content/G/Shareddrives/LC-Aging/Young Adult - Behavioral + Pupillometry Study/Data Collection/metacog YA/subject17_MST_session1_run1_10_19_11.mat,12.0,targ,115.0,1,0.4,indoor,1.6346935000037774,5004.4727793696275,0.8616516493405006,0.34466065973620025,1.0,,,,,,,0,128,0,,0targ
17,14520,1,MSTstudy,1,/content/G/Shareddrives/LC-Aging/Young Adult - Behavioral + Pupillometry Study/Data Collection/metacog YA/subject17_MST_session1_run1_10_19_11.mat,13.0,targ,81.0,1,0.4,indoor,0.8698357999674045,5229.065902578796,0.9003212642181123,0.3601285056872449,1.0,,,,,,,0,128,0,,0targ
17,14520,1,MSTstudy,1,/content/G/Shareddrives/LC-Aging/Young Adult - Behavioral + Pupillometry Study/Data Collection/metacog YA/subject17_MST_session1_run1_10_19_11.mat,14.0,lure,161.0,1,0.4,indoor,0.858509799989406,5620.194842406877,0.9676644012408535,0.3870657604963414,1.0,,,,,5.0,,0,128,0,,5lure
17,14520,1,MSTstudy,1,/content/G/Shareddrives/LC-Aging/Young Adult - Behavioral + Pupillometry Study/Data Collection/metacog YA/subject17_MST_session1_run1_10_19_11.mat,15.0,targ,108.0,1,0.4,outdoor,0.9408335000043735,5268.439828080229,0.9071005213636758,0.36284020854547033,1.0,,,,,,,0,128,0,,0targ
17,14520,1,MSTstudy,1,/content/G/Shareddrives/LC-Aging/Young Adult - Behavioral + Pupillometry Study/Data Collection/metacog YA/subject17_MST_session1_run1_10_19_11.mat,16.0,targ,68.0,0,0.05,indoor,0.8705359000014141,1060.2134670487105,1.460349128166268,0.07301745640831339,1.0,,,,,,,0,128,0,,0targ
17,14520,1,MSTstudy,1,/content/G/Shareddrives/LC-Aging/Young Adult - Behavioral + Pupillometry Study/Data Collection/metacog YA/subject17_MST_session1_run1_10_19_11.mat,17.0,lure,162.0,1,0.4,indoor,0.7411428999621421,4896.5,0.8430612947658402,0.33722451790633606,1.0,,,,,5.0,,0,128,0,,5lure
17,14520,1,MSTstudy,1,/content/G/Shareddrives/LC-Aging/Young Adult - Behavioral + Pupillometry Study/Data Collection/metacog YA/subject17_MST_session1_run1_10_19_11.mat,18.0,targ,98.0,0,0.05,outdoor,1.8818265000008978,1122.5071633237822,1.5461531175258707,0.07730765587629354,1.0,,,,,,,0,128,0,,0targ
17,14520,1,MSTstudy,1,/content/G/Shareddrives/LC-Aging/Young Adult - Behavioral + Pupillometry Study/Data Collection/metacog YA/subject17_MST_session1_run1_10_19_11.mat,19.0,targ,104.0,0,0.05,outdoor,1.3171781999990344,1081.9756446991405,1.4903245794754,0.07451622897377001,1.0,,,,,,,0,128,0,,0targ
17,14520,1,MSTstudy,1,/content/G/Shareddrives/LC-Aging/Young Adult - Behavioral + Pupillometry Study/Data Collection/metacog YA/subject17_MST_session1_run1_10_19_11.mat,20.0,lure,192.0,1,0.4,outdoor,0.9172979000140913,5050.538681948424,0.8695831063960785,0.3478332425584314,1.0,,,,,5.0,,0,128,0,,5lure
17,14520,1,MSTstudy,1,/content/G/Shareddrives/LC-Aging/Young Adult - Behavioral + Pupillometry Study/Data Collection/metacog YA/subject17_MST_session1_run1_10_19_11.mat,21.0,targ,109.0,0,0.05,indoor,1.2350127999670804,967.5458452722063,1.3327077758570334,0.06663538879285168,1.0,,,,,,,0,128,0,,0targ
17,14520,1,MSTstudy,1,/content/G/Shareddrives/LC-Aging/Young Adult - Behavioral + Pupillometry Study/Data Collection/metacog YA/subject17_MST_session1_run1_10_19_11.mat,22.0,lure,148.0,0,0.05,outdoor,0.740958500013221,1003.458452722063,1.382174177303117,0.06910870886515585,1.0,,,,,1.0,,0,128,0,,1lure
17,14520,1,MSTstudy,1,/content/G/Shareddrives/LC-Aging/Young Adult - Behavioral + Pupillometry Study/Data Collection/metacog YA/subject17_MST_session1_run1_10_19_11.mat,23.0,lure,140.0,1,0.4,indoor,0.5408969999989495,4379.7765042979945,0.7540937507400128,0.3016375002960051,1.0,,,,,2.0,,0,128,0,,2lure
17,14520,1,MSTstudy,1,/content/G/Shareddrives/LC-Aging/Young Adult - Behavioral + Pupillometry Study/Data Collection/metacog YA/subject17_MST_session1_run1_10_19_11.mat,24.0,lure,139.0,0,0.05,,2.01111329998821,1095.5816618911174,1.509065649987765,0.07545328249938825,1.0,,,,,5.0,,0,128,0,,5lure
17,14520,1,MSTstudy,1,/content/G/Shareddrives/LC-Aging/Young Adult - Behavioral + Pupillometry Study/Data Collection/metacog YA/subject17_MST_session1_run1_10_19_11.mat,25.0,lure,138.0,0,0.05,outdoor,0.882169300050009,1062.8839541547277,1.4640274850616084,0.07320137425308042,1.0,,,,,1.0,,0,128,0,,1lure
17,14520,1,MSTstudy,1,/content/G/Shareddrives/LC-Aging/Young Adult - Behavioral + Pupillometry Study/Data Collection/metacog YA/subject17_MST_session1_run1_10_19_11.mat,26.0,targ,110.0,1,0.4,indoor,0.7175291000166908,4976.368194842407,0.856812705723555,0.342725082289422,1.0,,,,,,,0,128,0,,0targ
17,14520,1,MSTstudy,1,/content/G/Shareddrives/LC-Aging/Young Adult - Behavioral + Pupillometry Study/Data Collection/metacog YA/subject17_MST_session1_run1_10_19_11.mat,27.0,targ,119.0,0,0.05,indoor,1.093853600032162,936.5444126074499,1.290006077971694,0.0645003038985847,1.0,,,,,,,0,128,0,,0targ
17,14520,1,MSTstudy,1,/content/G/Shareddrives/LC-Aging/Young Adult - Behavioral + Pupillometry Study/Data Collection/metacog YA/subject17_MST_session1_run1_10_19_11.mat,28.0,lure,146.0,0,0.05,indoor,0.7643296000314876,976.5744985673352,1.345143937420572,0.0672571968710286,1.0,,,,,5.0,,0,128,0,,5lure
17,14520,1,MSTstudy,1,/content/G/Shareddrives/LC-Aging/Young Adult - Behavioral + Pupillometry Study/Data Collection/metacog YA/subject17_MST_session1_run1_10_19_11.mat,29.0,targ,90.0,1,0.4,outdoor,0.5881372999865562,5298.4742120343835,0.9122717307221735,0.3649086922888694,1.0,,,,,,,0,128,0,,0targ
17,14520,1,MSTstudy,1,/content/G/Shareddrives/LC-Aging/Young Adult - Behavioral + Pupillometry Study/Data Collection/metacog YA/subject17_MST_session1_run1_10_19_11.mat,30.0,targ,89.0,1,0.4,indoor,0.6115420999703929,4933.378223495702,0.8494108511528412,0.33976434046113646,1.0,,,,,,,0,128,0,,0targ
17,14520,1,MSTstudy,1,/content/G/Shareddrives/LC-Aging/Young Adult - Behavioral + Pupillometry Study/Data Collection/metacog YA/subject17_MST_session1_run1_10_19_11.mat,31.0,targ,94.0,0,0.05,outdoor,0.8585331999929622,1145.4842406876792,1.577801984418291,0.07889009922091454,1.0,,,,,,,0,128,0,,0targ
17,14520,1,MSTstudy,1,/content/G/Shareddrives/LC-Aging/Young Adult - Behavioral + Pupillometry Study/Data Collection/metacog YA/subject17_MST_session1_run1_10_19_11.mat,32.0,lure,183.0,1,0.4,outdoor,0.7173858000314794,4327.263610315186,0.7450522745033035,0.29802090980132134,0.9753086419753086,,,,,4.0,,0,128,0,,4lure
17,14520,1,MSTstudy,1,/content/G/Shareddrives/LC-Aging/Young Adult - Behavioral + Pupillometry Study/Data Collection/metacog YA/subject17_MST_session1_run1_10_19_11.mat,33.0,lure,172.0,1,0.4,outdoor,1.8114325999631546,5384.654727793696,0.9271099737936804,0.37084398951747216,1.0,,,,,3.0,,0,128,0,,3lure
17,14520,1,MSTstudy,1,/content/G/Shareddrives/LC-Aging/Young Adult - Behavioral + Pupillometry Study/Data Collection/metacog YA/subject17_MST_session1_run1_10_19_11.mat,34.0,targ,103.0,1,0.4,outdoor,0.7290791000123136,5241.239255014327,0.9024172271030177,0.3609668908412071,1.0,,,,,,,0,128,0,,0targ
17,14520,1,MSTstudy,1,/content/G/Shareddrives/LC-Aging/Young Adult - Behavioral + Pupillometry Study/Data Collection/metacog YA/subject17_MST_session1_run1_10_19_11.mat,35.0,targ,121.0,1,0.4,outdoor,0.5409794999868609,4742.914040114613,0.8166174311492103,0.3266469724596841,1.0,,,,,,,0,128,0,,0targ
17,14520,1,MSTstudy,1,/content/G/Shareddrives/LC-Aging/Young Adult - Behavioral + Pupillometry Study/Data Collection/metacog YA/subject17_MST_session1_run1_10_19_11.mat,36.0,lure,158.0,0,0.05,outdoor,0.5645049000158906,1047.7607449856735,1.4431966184375666,0.07215983092187833,1.0,,,,,3.0,,0,128,0,,3lure
17,14520,1,MSTstudy,1,/content/G/Shareddrives/LC-Aging/Young Adult - Behavioral + Pupillometry Study/Data Collection/metacog YA/subject17_MST_session1_run1_10_19_11.mat,37.0,lure,150.0,1,0.4,outdoor,0.6934041999629699,5084.312320916905,0.8753981268796325,0.350159250751853,1.0,,,,,2.0,,0,128,0,,2lure
17,14520,1,MSTstudy,1,/content/G/Shareddrives/LC-Aging/Young Adult - Behavioral + Pupillometry Study/Data Collection/metacog YA/subject17_MST_session1_run1_10_19_11.mat,38.0,targ,76.0,1,0.4,indoor,0.8821297999820672,4765.336676217765,0.8204780778611854,0.3281912311444742,1.0,,,,,,,0,128,0,,0targ
17,14520,1,MSTstudy,1,/content/G/Shareddrives/LC-Aging/Young Adult - Behavioral + Pupillometry Study/Data Collection/metacog YA/subject17_MST_session1_run1_10_19_11.mat,39.0,targ,117.0,0,0.05,outdoor,1.105564699973911,1082.634670487106,1.4912323284946363,0.07456161642473182,1.0,,,,,,,0,128,0,,0targ
17,14520,1,MSTstudy,1,/content/G/Shareddrives/LC-Aging/Young Adult - Behavioral + Pupillometry Study/Data Collection/metacog YA/subject17_MST_session1_run1_10_19_11.mat,40.0,lure,186.0,1,0.4,outdoor,0.7292892000405118,4695.868194842407,0.8085172511781005,0.32340690047124016,1.0,,,,,3.0,,0,128,0,,3lure
17,14520,1,MSTstudy,1,/content/G/Shareddrives/LC-Aging/Young Adult - Behavioral + Pupillometry Study/Data Collection/metacog YA/subject17_MST_session1_run1_10_19_11.mat,41.0,lure,157.0,0,0.05,,2.011169000004884,1258.7163323782236,1.7337690528625669,0.08668845264312834,1.0,,,,,3.0,,0,128,0,,3lure
17,14520,1,MSTstudy,1,/content/G/Shareddrives/LC-Aging/Young Adult - Behavioral + Pupillometry Study/Data Collection/metacog YA/subject17_MST_session1_run1_10_19_11.mat,42.0,lure,165.0,1,0.4,outdoor,0.8938575999927707,4824.7765042979945,0.8307122080402883,0.3322848832161153,1.0,,,,,4.0,,0,128,0,,4lure
17,14520,1,MSTstudy,1,/content/G/Shareddrives/LC-Aging/Young Adult - Behavioral + Pupillometry Study/Data Collection/metacog YA/subject17_MST_session1_run1_10_19_11.mat,43.0,lure,185.0,1,0.4,indoor,0.6585936000337824,4698.848137535817,0.8090303267107123,0.3236121306842849,1.0,,,,,5.0,,0,128,0,,5lure
17,14520,1,MSTstudy,1,/content/G/Shareddrives/LC-Aging/Young Adult - Behavioral + Pupillometry Study/Data Collection/metacog YA/subject17_MST_session1_run1_10_19_11.mat,44.0,lure,173.0,1,0.4,outdoor,0.7292440999881364,5166.084527220631,0.8894773635021747,0.35579094540086986,1.0,,,,,1.0,,0,128,0,,1lure
17,14520,1,MSTstudy,1,/content/G/Shareddrives/LC-Aging/Young Adult - Behavioral + Pupillometry Study/Data Collection/metacog YA/subject17_MST_session1_run1_10_19_11.mat,45.0,lure,152.0,0,0.05,indoor,0.6821494999458082,1167.9512893982808,1.6087483325045189,0.08043741662522595,1.0,,,,,1.0,,0,128,0,,1lure
17,14520,1,MSTstudy,1,/content/G/Shareddrives/LC-Aging/Young Adult - Behavioral + Pupillometry Study/Data Collection/metacog YA/subject17_MST_session1_run1_10_19_11.mat,46.0,targ,79.0,0,0.05,outdoor,0.7761515000020154,1167.4914040114613,1.6081148815584867,0.08040574407792433,1.0,,,,,,,0,128,0,,0targ
17,14520,1,MSTstudy,1,/content/G/Shareddrives/LC-Aging/Young Adult - Behavioral + Pupillometry Study/Data Collection/metacog YA/subject17_MST_session1_run1_10_19_11.mat,47.0,lure,129.0,0,0.05,outdoor,1.19972679996863,1070.445558739255,1.4744429183736294,0.07372214591868147,1.0,,,,,4.0,,0,128,0,,4lure
17,14520,1,MSTstudy,1,/content/G/Shareddrives/LC-Aging/Young Adult - Behavioral + Pupillometry Study/Data Collection/metacog YA/subject17_MST_session1_run1_10_19_11.mat,48.0,lure,188.0,0,0.05,indoor,0.9526488999836147,1086.0845272206304,1.4959841972735957,0.07479920986367979,1.0,,,,,5.0,,0,128,0,,5lure
17,14520,1,MSTstudy,1,/content/G/Shareddrives/LC-Aging/Young Adult - Behavioral + Pupillometry Study/Data Collection/metacog YA/subject17_MST_session1_run1_10_19_11.mat,49.0,lure,177.0,1,0.4,indoor,1.1879021000349894,5386.779369627508,0.9274757867815957,0.37099031471263827,1.0,,,,,1.0,,0,128,0,,1lure
17,14520,1,MSTstudy,1,/content/G/Shareddrives/LC-Aging/Young Adult - Behavioral + Pupillometry Study/Data Collection/metacog YA/subject17_MST_session1_run1_10_19_11.mat,50.0,lure,190.0,0,0.05,indoor,0.9291352000436746,1241.7936962750716,1.7104596367425229,0.08552298183712614,1.0,,,,,4.0,,0,128,0,,4lure
17,14520,1,MSTstudy,1,/content/G/Shareddrives/LC-Aging/Young Adult - Behavioral + Pupillometry Study/Data Collection/metacog YA/subject17_MST_session1_run1_10_19_11.mat,51.0,lure,142.0,1,0.4,indoor,0.6352669000043534,5205.13323782235,0.8962006263468233,0.35848025053872934,1.0,,,,,2.0,,0,128,0,,2lure
17,14520,1,MSTstudy,1,/content/G/Shareddrives/LC-Aging/Young Adult - Behavioral + Pupillometry Study/Data Collection/metacog YA/subject17_MST_session1_run1_10_19_11.mat,52.0,lure,169.0,0,0.05,indoor,0.7762188999913633,1242.2507163323783,1.711089140953689,0.08555445704768445,1.0,,,,,2.0,,0,128,0,,2lure
17,14520,1,MSTstudy,1,/content/G/Shareddrives/LC-Aging/Young Adult - Behavioral + Pupillometry Study/Data Collection/metacog YA/subject17_MST_session1_run1_10_19_11.mat,53.0,targ,99.0,0,0.05,outdoor,0.8467996999970637,1083.9512893982808,1.493045853165676,0.0746522926582838,1.0,,,,,,,0,128,0,,0targ
17,14520,1,MSTstudy,1,/content/G/Shareddrives/LC-Aging/Young Adult - Behavioral + Pupillometry Study/Data Collection/metacog YA/subject17_MST_session1_run1_10_19_11.mat,54.0,lure,163.0,0,0.05,outdoor,1.1055337999714538,1520.5315186246419,2.0943960311634187,0.10471980155817093,1.0,,,,,3.0,,0,128,0,,3lure
17,14520,1,MSTstudy,1,/content/G/Shareddrives/LC-Aging/Young Adult - Behavioral + Pupillometry Study/Data Collection/metacog YA/subject17_MST_session1_run1_10_19_11.mat,55.0,lure,135.0,0,0.05,indoor,0.987773000029847,1136.6862464183382,1.565683535011485,0.07828417675057425,1.0,,,,,5.0,,0,128,0,,5lure
17,14520,1,MSTstudy,1,/content/G/Shareddrives/LC-Aging/Young Adult - Behavioral + Pupillometry Study/Data Collection/metacog YA/subject17_MST_session1_run1_10_19_11.mat,56.0,lure,144.0,1,0.4,indoor,0.5879673999734223,4580.19340974212,0.7886007936883815,0.3154403174753526,1.0,,,,,4.0,,0,128,0,,4lure
17,14520,1,MSTstudy,1,/content/G/Shareddrives/LC-Aging/Young Adult - Behavioral + Pupillometry Study/Data Collection/metacog YA/subject17_MST_session1_run1_10_19_11.mat,57.0,targ,85.0,0,0.05,outdoor,0.8468490000232123,1108.5530085959886,1.5269325187272569,0.07634662593636285,1.0,,,,,,,0,128,0,,0targ
17,14520,1,MSTstudy,1,/content/G/Shareddrives/LC-Aging/Young Adult - Behavioral + Pupillometry Study/Data Collection/metacog YA/subject17_MST_session1_run1_10_19_11.mat,58.0,lure,130.0,1,0.4,indoor,1.023213200038299,4956.4240687679085,0.8533787997189926,0.341351519887597,1.0,,,,,4.0,,0,128,0,,4lure
17,14520,1,MSTstudy,1,/content/G/Shareddrives/LC-Aging/Young Adult - Behavioral + Pupillometry Study/Data Collection/metacog YA/subject17_MST_session1_run1_10_19_11.mat,59.0,lure,184.0,0,0.05,indoor,0.7528525999514386,1026.5071633237822,1.413921712567193,0.07069608562835965,1.0,,,,,3.0,,0,128,0,,3lure
17,14520,1,MSTstudy,1,/content/G/Shareddrives/LC-Aging/Young Adult - Behavioral + Pupillometry Study/Data Collection/metacog YA/subject17_MST_session1_run1_10_19_11.mat,60.0,lure,164.0,0,0.05,indoor,1.1055633999640122,1075.3481375358167,1.4811957817297752,0.07405978908648875,1.0,,,,,4.0,,0,128,0,,4lure
17,14520,1,MSTstudy,1,/content/G/Shareddrives/LC-Aging/Young Adult - Behavioral + Pupillometry Study/Data Collection/metacog YA/subject17_MST_session1_run1_10_19_11.mat,61.0,targ,128.0,0,0.05,outdoor,0.717310499981977,1037.8094555873924,1.4294896082470971,0.07147448041235485,1.0,,,,,,,0,128,0,,0targ
17,14520,1,MSTstudy,1,/content/G/Shareddrives/LC-Aging/Young Adult - Behavioral + Pupillometry Study/Data Collection/metacog YA/subject17_MST_session1_run1_10_19_11.mat,62.0,targ,84.0,1,0.4,outdoor,0.45848960004514083,4376.372492836676,0.7535076606123754,0.30140306424495017,1.0,,,,,,,0,128,0,,0targ
17,14520,1,MSTstudy,1,/content/G/Shareddrives/LC-Aging/Young Adult - Behavioral + Pupillometry Study/Data Collection/metacog YA/subject17_MST_session1_run1_10_19_11.mat,63.0,targ,122.0,1,0.4,indoor,1.1761113000102341,5228.650429799427,0.9002497296486617,0.36009989185946467,1.0,,,,,,,0,128,0,,0targ
17,14520,1,MSTstudy,1,/content/G/Shareddrives/LC-Aging/Young Adult - Behavioral + Pupillometry Study/Data Collection/metacog YA/subject17_MST_session1_run1_10_19_11.mat,64.0,targ,111.0,1,0.4,indoor,0.658626499993261,4806.468481375358,0.8275600002368041,0.33102400009472166,1.0,,,,,,,0,128,0,,0targ
17,14520,1,MSTstudy,1,/content/G/Shareddrives/LC-Aging/Young Adult - Behavioral + Pupillometry Study/Data Collection/metacog YA/subject17_MST_session1_run1_10_19_11.mat,65.0,targ,116.0,1,0.4,indoor,0.45875140000134706,5052.770773638968,0.8699674197036792,0.34798696788147165,1.0,,,,,,,0,128,0,,0targ
17,14520,1,MSTstudy,1,/content/G/Shareddrives/LC-Aging/Young Adult - Behavioral + Pupillometry Study/Data Collection/metacog YA/subject17_MST_session1_run1_10_19_11.mat,66.0,targ,95.0,0,0.05,outdoor,0.5763505999930203,1128.7879656160458,1.5548043603526802,0.077740218017634,1.0,,,,,,,0,128,0,,0targ
17,14520,1,MSTstudy,1,/content/G/Shareddrives/LC-Aging/Young Adult - Behavioral + Pupillometry Study/Data Collection/metacog YA/subject17_MST_session1_run1_10_19_11.mat,67.0,targ,78.0,1,0.4,indoor,0.7763297999626957,5261.090257879656,0.9058350994971859,0.36233403979887435,1.0,,,,,,,0,128,0,,0targ
17,14520,1,MSTstudy,1,/content/G/Shareddrives/LC-Aging/Young Adult - Behavioral + Pupillometry Study/Data Collection/metacog YA/subject17_MST_session1_run1_10_19_11.mat,68.0,targ,101.0,0,0.05,indoor,0.8351638999884017,1255.1919770773638,1.7289145689770853,0.08644572844885426,1.0,,,,,,,0,128,0,,0targ
17,14520,1,MSTstudy,1,/content/G/Shareddrives/LC-Aging/Young Adult - Behavioral + Pupillometry Study/Data Collection/metacog YA/subject17_MST_session1_run1_10_19_11.mat,69.0,lure,143.0,0,0.05,indoor,0.6703264000243507,1174.2550143266476,1.6174311492102584,0.08087155746051292,1.0,,,,,3.0,,0,128,0,,3lure
17,14520,1,MSTstudy,1,/content/G/Shareddrives/LC-Aging/Young Adult - Behavioral + Pupillometry Study/Data Collection/metacog YA/subject17_MST_session1_run1_10_19_11.mat,70.0,lure,166.0,1,0.4,indoor,0.752655100019183,5224.106017191977,0.8994672894614286,0.35978691578457145,1.0,,,,,4.0,,0,128,0,,4lure
17,14520,1,MSTstudy,1,/content/G/Shareddrives/LC-Aging/Young Adult - Behavioral + Pupillometry Study/Data Collection/metacog YA/subject17_MST_session1_run1_10_19_11.mat,71.0,lure,175.0,0,0.05,indoor,0.764464899955783,1183.2893982808023,1.6298752042435294,0.08149376021217647,1.0,,,,,4.0,,0,128,0,,4lure
17,14520,1,MSTstudy,1,/content/G/Shareddrives/LC-Aging/Young Adult - Behavioral + Pupillometry Study/Data Collection/metacog YA/subject17_MST_session1_run1_10_19_11.mat,72.0,lure,189.0,1,0.4,indoor,0.5644855999853462,4987.865329512894,0.858792239929906,0.3435168959719624,1.0,,,,,5.0,,0,128,0,,5lure
17,14520,1,MSTstudy,1,/content/G/Shareddrives/LC-Aging/Young Adult - Behavioral + Pupillometry Study/Data Collection/metacog YA/subject17_MST_session1_run1_10_19_11.mat,73.0,lure,132.0,1,0.4,indoor,0.5645264000049792,5002.106017191977,0.8612441489655608,0.3444976595862243,1.0,,,,,5.0,,0,128,0,,5lure
17,14520,1,MSTstudy,1,/content/G/Shareddrives/LC-Aging/Young Adult - Behavioral + Pupillometry Study/Data Collection/metacog YA/subject17_MST_session1_run1_10_19_11.mat,74.0,targ,73.0,0,0.05,outdoor,0.6468597000348382,1178.5916905444126,1.6234045324303203,0.08117022662151602,1.0,,,,,,,0,128,0,,0targ
