index,sub,mvc,ses,task,run,filepath,trial,stimLev,stimLev_i,isOddball,resp1_diff,isStrength,gf_trPer,iscorr,resp1,resp1RT,resp2,resp2RT,hit,miss,fa,cr,hit_1,hit_2,hit_3,hit_4,miss_1,miss_2,miss_3,miss_4,fa_1,fa_2,fa_3,fa_4,cr_1,cr_2,cr_3,cr_4,auc,auc_prop_targ,auc_rel_mvc,prop_valid_grip_samples,conf_median,resp2_bin_temp,resp2_bin_0,resp2_bin_1,resp2_bin_med
0,11,16426,1,cdt,1,/content/G/Shareddrives/LC-Aging/Young Adult - Behavioral + Pupillometry Study/Data Collection/metacog YA/subject11_CD_session1_run1_8_22_9.mat,1.0,5,1,1,,0,0.05,1,,3.010833099950105,2.0,0.5762505999300629,1,0,0,0,0,1,0,0,0,0,0,0,0,0,0,0,0,0,0,0,857.3022922636103,1.0438357387843786,0.05219178693921894,1.0,4.0,0,70,0,0
1,11,16426,1,cdt,1,/content/G/Shareddrives/LC-Aging/Young Adult - Behavioral + Pupillometry Study/Data Collection/metacog YA/subject11_CD_session1_run1_8_22_9.mat,2.0,45,3,1,,0,0.05,1,,3.0107873999513686,2.0,0.011710899882018566,1,0,0,0,0,1,0,0,0,0,0,0,0,0,0,0,0,0,0,0,405.44412607449857,0.4936614222263467,0.024683071111317338,0.6728395061728395,4.0,0,70,0,0
2,11,16426,1,cdt,1,/content/G/Shareddrives/LC-Aging/Young Adult - Behavioral + Pupillometry Study/Data Collection/metacog YA/subject11_CD_session1_run1_8_22_9.mat,3.0,20,2,1,,1,0.4,1,,3.010883399983868,1.0,0.01176570006646216,1,0,0,0,1,0,0,0,0,0,0,0,0,0,0,0,0,0,0,0,123.567335243553,0.018806668580840284,0.007522667432336113,0.0,4.0,0,70,0,0
3,11,16426,1,cdt,1,/content/G/Shareddrives/LC-Aging/Young Adult - Behavioral + Pupillometry Study/Data Collection/metacog YA/subject11_CD_session1_run1_8_22_9.mat,4.0,20,2,1,1.0,1,0.4,1,1.0,2.846226700115949,4.0,1.10553629999049,1,0,0,0,0,0,0,1,0,0,0,0,0,0,0,0,0,0,0,0,3454.1461318051574,0.5257132186480514,0.2102852874592206,0.9691358024691358,4.0,2,70,0,1
4,11,16426,1,cdt,1,/content/G/Shareddrives/LC-Aging/Young Adult - Behavioral + Pupillometry Study/Data Collection/metacog YA/subject11_CD_session1_run1_8_22_9.mat,5.0,20,2,1,1.0,0,0.05,1,1.0,2.481636800104752,4.0,0.6115260999649763,1,0,0,0,0,0,0,1,0,0,0,0,0,0,0,0,0,0,0,0,1071.189111747851,1.3042604550686119,0.0652130227534306,1.0,4.0,2,70,0,1
5,11,16426,1,cdt,1,/content/G/Shareddrives/LC-Aging/Young Adult - Behavioral + Pupillometry Study/Data Collection/metacog YA/subject11_CD_session1_run1_8_22_9.mat,6.0,0,0,0,1.0,0,0.05,0,1.0,2.469746599905193,4.0,1.1525999000295997,0,0,1,0,0,0,0,0,0,0,0,0,0,0,0,1,0,0,0,0,845.3610315186246,1.0292962760484896,0.051464813802424486,1.0,4.0,2,70,0,1
6,11,16426,1,cdt,1,/content/G/Shareddrives/LC-Aging/Young Adult - Behavioral + Pupillometry Study/Data Collection/metacog YA/subject11_CD_session1_run1_8_22_9.mat,7.0,90,4,1,1.0,0,0.05,1,1.0,2.034707900136709,4.0,0.9408283000811934,1,0,0,0,0,0,0,1,0,0,0,0,0,0,0,0,0,0,0,0,812.9369627507164,0.9898173173635898,0.049490865868179496,1.0,4.0,2,70,0,1
7,11,16426,1,cdt,1,/content/G/Shareddrives/LC-Aging/Young Adult - Behavioral + Pupillometry Study/Data Collection/metacog YA/subject11_CD_session1_run1_8_22_9.mat,8.0,20,2,1,,0,0.05,1,,3.0107772001065314,1.0,0.011747000040486455,1,0,0,0,1,0,0,0,0,0,0,0,0,0,0,0,0,0,0,0,810.6189111747851,0.9869948997623098,0.04934974498811549,1.0,4.0,0,70,0,0
8,11,16426,1,cdt,1,/content/G/Shareddrives/LC-Aging/Young Adult - Behavioral + Pupillometry Study/Data Collection/metacog YA/subject11_CD_session1_run1_8_22_9.mat,9.0,45,3,1,1.0,1,0.4,1,1.0,1.528872000053525,4.0,0.4821895998902619,1,0,0,0,0,0,0,1,0,0,0,0,0,0,0,0,0,0,0,0,3637.558739255014,0.5536282021269655,0.2214512808507862,1.0,4.0,2,70,0,1
9,11,16426,1,cdt,1,/content/G/Shareddrives/LC-Aging/Young Adult - Behavioral + Pupillometry Study/Data Collection/metacog YA/subject11_CD_session1_run1_8_22_9.mat,10.0,0,0,0,0.0,1,0.4,1,2.0,2.4463101997971535,3.0,0.5173239000141621,0,0,0,1,0,0,0,0,0,0,0,0,0,0,0,0,0,0,1,0,4256.515759312321,0.6478320588262999,0.25913282353052,1.0,4.0,0,70,0,0
10,11,16426,1,cdt,1,/content/G/Shareddrives/LC-Aging/Young Adult - Behavioral + Pupillometry Study/Data Collection/metacog YA/subject11_CD_session1_run1_8_22_9.mat,11.0,90,4,1,,1,0.4,1,,3.0108023998327553,1.0,0.01174749992787838,1,0,0,0,1,0,0,0,0,0,0,0,0,0,0,0,0,0,0,0,4021.9598853868197,0.612133186014066,0.24485327440562643,1.0,4.0,0,70,0,0
11,11,16426,1,cdt,1,/content/G/Shareddrives/LC-Aging/Young Adult - Behavioral + Pupillometry Study/Data Collection/metacog YA/subject11_CD_session1_run1_8_22_9.mat,12.0,0,0,0,,1,0.4,1,,0.011735100066289306,3.0,2.0229280998464674,0,0,0,1,0,0,0,0,0,0,0,0,0,0,0,0,0,0,1,0,3987.3037249283666,0.6068585968781758,0.24274343875127033,1.0,4.0,0,70,0,0
12,11,16426,1,cdt,1,/content/G/Shareddrives/LC-Aging/Young Adult - Behavioral + Pupillometry Study/Data Collection/metacog YA/subject11_CD_session1_run1_8_22_9.mat,13.0,5,1,1,0.0,1,0.4,0,2.0,1.9877190000843257,4.0,0.5059312002267689,0,1,0,0,0,0,0,0,0,0,0,1,0,0,0,0,0,0,0,0,4280.094555873926,0.6514206982640213,0.26056827930560855,1.0,4.0,2,70,0,1
13,11,16426,1,cdt,1,/content/G/Shareddrives/LC-Aging/Young Adult - Behavioral + Pupillometry Study/Data Collection/metacog YA/subject11_CD_session1_run1_8_22_9.mat,14.0,20,2,1,1.0,0,0.05,1,1.0,2.081695399945602,4.0,0.870276500005275,1,0,0,0,0,0,0,1,0,0,0,0,0,0,0,0,0,0,0,0,1380.5214899713467,1.6808979544275497,0.08404489772137749,1.0,4.0,2,70,0,1
14,11,16426,1,cdt,1,/content/G/Shareddrives/LC-Aging/Young Adult - Behavioral + Pupillometry Study/Data Collection/metacog YA/subject11_CD_session1_run1_8_22_9.mat,15.0,90,4,1,1.0,0,0.05,1,1.0,2.5168182998895645,4.0,0.9529327000491321,1,0,0,0,0,0,0,1,0,0,0,0,0,0,0,0,0,0,0,0,828.1948424068768,1.0083950351964894,0.05041975175982447,1.0,4.0,2,70,0,1
15,11,16426,1,cdt,1,/content/G/Shareddrives/LC-Aging/Young Adult - Behavioral + Pupillometry Study/Data Collection/metacog YA/subject11_CD_session1_run1_8_22_9.mat,16.0,0,0,0,0.0,1,0.4,1,2.0,2.0935099001508206,2.0,1.1526852000970393,0,0,0,1,0,0,0,0,0,0,0,0,0,0,0,0,0,1,0,0,3538.67335243553,0.5385780701990031,0.21543122807960124,1.0,4.0,0,70,0,0
16,11,16426,1,cdt,1,/content/G/Shareddrives/LC-Aging/Young Adult - Behavioral + Pupillometry Study/Data Collection/metacog YA/subject11_CD_session1_run1_8_22_9.mat,17.0,90,4,1,1.0,0,0.05,1,1.0,2.375809600111097,4.0,0.6468776999972761,1,0,0,0,0,0,0,1,0,0,0,0,0,0,0,0,0,0,0,0,848.919770773639,1.0336293324895154,0.05168146662447577,1.0,4.0,2,70,0,1
17,11,16426,1,cdt,1,/content/G/Shareddrives/LC-Aging/Young Adult - Behavioral + Pupillometry Study/Data Collection/metacog YA/subject11_CD_session1_run1_8_22_9.mat,18.0,0,0,0,0.0,1,0.4,1,2.0,2.0582059000153095,4.0,0.48180160019546747,0,0,0,1,0,0,0,0,0,0,0,0,0,0,0,0,0,0,0,1,3275.1232091690545,0.49846633525646145,0.19938653410258458,0.9691358024691358,4.0,2,70,0,1
18,11,16426,1,cdt,1,/content/G/Shareddrives/LC-Aging/Young Adult - Behavioral + Pupillometry Study/Data Collection/metacog YA/subject11_CD_session1_run1_8_22_9.mat,19.0,0,0,0,0.0,0,0.05,1,2.0,1.8347745998762548,3.0,0.7879918001126498,0,0,0,1,0,0,0,0,0,0,0,0,0,0,0,0,0,0,1,0,913.8510028653295,1.1126884242850719,0.05563442121425359,1.0,4.0,0,70,0,0
19,11,16426,1,cdt,1,/content/G/Shareddrives/LC-Aging/Young Adult - Behavioral + Pupillometry Study/Data Collection/metacog YA/subject11_CD_session1_run1_8_22_9.mat,20.0,45,3,1,1.0,0,0.05,1,1.0,2.07002710015513,4.0,0.5174482001457363,1,0,0,0,0,0,0,1,0,0,0,0,0,0,0,0,0,0,0,0,980.2779369627507,1.1935686557442478,0.05967843278721239,1.0,4.0,2,70,0,1
20,11,16426,1,cdt,1,/content/G/Shareddrives/LC-Aging/Young Adult - Behavioral + Pupillometry Study/Data Collection/metacog YA/subject11_CD_session1_run1_8_22_9.mat,21.0,45,3,1,1.0,0,0.05,1,1.0,2.070029699942097,4.0,0.3764247000217438,1,0,0,0,0,0,0,1,0,0,0,0,0,0,0,0,0,0,0,0,833.2578796561604,1.0145596976210403,0.05072798488105201,1.0,4.0,2,70,0,1
21,11,16426,1,cdt,1,/content/G/Shareddrives/LC-Aging/Young Adult - Behavioral + Pupillometry Study/Data Collection/metacog YA/subject11_CD_session1_run1_8_22_9.mat,22.0,45,3,1,1.0,1,0.4,1,1.0,2.7639997999649495,4.0,0.435118299908936,1,0,0,0,0,0,0,1,0,0,0,0,0,0,0,0,0,0,0,0,3605.610315186246,0.5487657243373685,0.2195062897349474,1.0,4.0,2,70,0,1
22,11,16426,1,cdt,1,/content/G/Shareddrives/LC-Aging/Young Adult - Behavioral + Pupillometry Study/Data Collection/metacog YA/subject11_CD_session1_run1_8_22_9.mat,23.0,90,4,1,1.0,1,0.4,1,1.0,2.211058400105685,4.0,0.4469401999376714,1,0,0,0,0,0,0,1,0,0,0,0,0,0,0,0,0,0,0,0,4229.7249283667625,0.6437545550296424,0.25750182201185695,1.0,4.0,2,70,0,1
23,11,16426,1,cdt,1,/content/G/Shareddrives/LC-Aging/Young Adult - Behavioral + Pupillometry Study/Data Collection/metacog YA/subject11_CD_session1_run1_8_22_9.mat,24.0,45,3,1,1.0,0,0.05,1,1.0,2.458100799936801,4.0,0.45865579997189343,1,0,0,0,0,0,0,1,0,0,0,0,0,0,0,0,0,0,0,0,826.5014326647564,1.006333170175035,0.05031665850875176,1.0,4.0,2,70,0,1
24,11,16426,1,cdt,1,/content/G/Shareddrives/LC-Aging/Young Adult - Behavioral + Pupillometry Study/Data Collection/metacog YA/subject11_CD_session1_run1_8_22_9.mat,25.0,20,2,1,1.0,0,0.05,1,1.0,1.5877928999252617,4.0,0.4703205998521298,1,0,0,0,0,0,0,1,0,0,0,0,0,0,0,0,0,0,0,0,859.4928366762177,1.0465029059737216,0.05232514529868609,1.0,4.0,2,70,0,1
25,11,16426,1,cdt,1,/content/G/Shareddrives/LC-Aging/Young Adult - Behavioral + Pupillometry Study/Data Collection/metacog YA/subject11_CD_session1_run1_8_22_9.mat,26.0,5,1,1,0.0,0,0.05,0,2.0,1.7876433997880667,3.0,0.9525617000181228,0,1,0,0,0,0,0,0,0,0,1,0,0,0,0,0,0,0,0,0,916.9054441260745,1.1164074566249536,0.05582037283124769,1.0,4.0,0,70,0,0
26,11,16426,1,cdt,1,/content/G/Shareddrives/LC-Aging/Young Adult - Behavioral + Pupillometry Study/Data Collection/metacog YA/subject11_CD_session1_run1_8_22_9.mat,27.0,45,3,1,,1,0.4,1,,3.0107887000776827,1.0,0.011786499992012978,1,0,0,0,1,0,0,0,0,0,0,0,0,0,0,0,0,0,0,0,3972.0888252148998,0.6045429235990045,0.24181716943960183,1.0,4.0,0,70,0,0
27,11,16426,1,cdt,1,/content/G/Shareddrives/LC-Aging/Young Adult - Behavioral + Pupillometry Study/Data Collection/metacog YA/subject11_CD_session1_run1_8_22_9.mat,28.0,5,1,1,1.0,1,0.4,1,1.0,0.011839000042527914,3.0,2.5284976998809725,1,0,0,0,0,0,1,0,0,0,0,0,0,0,0,0,0,0,0,0,3088.4441260744984,0.4700542015820191,0.18802168063280764,0.8395061728395061,4.0,0,70,0,0
28,11,16426,1,cdt,1,/content/G/Shareddrives/LC-Aging/Young Adult - Behavioral + Pupillometry Study/Data Collection/metacog YA/subject11_CD_session1_run1_8_22_9.mat,29.0,90,4,1,1.0,0,0.05,1,1.0,1.8817762001417577,4.0,0.47049420000985265,1,0,0,0,0,0,0,1,0,0,0,0,0,0,0,0,0,0,0,0,1075.2521489971348,1.3092075356107813,0.06546037678053906,0.8024691358024691,4.0,2,70,0,1
29,11,16426,1,cdt,1,/content/G/Shareddrives/LC-Aging/Young Adult - Behavioral + Pupillometry Study/Data Collection/metacog YA/subject11_CD_session1_run1_8_22_9.mat,30.0,20,2,1,0.0,1,0.4,0,2.0,2.0227565998211503,3.0,0.3878614997956902,0,1,0,0,0,0,0,0,0,0,1,0,0,0,0,0,0,0,0,0,4246.3767908309455,0.6462889307851798,0.2585155723140719,1.0,4.0,0,70,0,0
30,11,16426,1,cdt,1,/content/G/Shareddrives/LC-Aging/Young Adult - Behavioral + Pupillometry Study/Data Collection/metacog YA/subject11_CD_session1_run1_8_22_9.mat,31.0,5,1,1,0.0,0,0.05,0,2.0,2.105229000095278,4.0,1.3525447000283748,0,1,0,0,0,0,0,0,0,0,0,1,0,0,0,0,0,0,0,0,824.1318051575931,1.00344795465432,0.050172397732716006,0.9814814814814815,4.0,2,70,0,1
31,11,16426,1,cdt,1,/content/G/Shareddrives/LC-Aging/Young Adult - Behavioral + Pupillometry Study/Data Collection/metacog YA/subject11_CD_session1_run1_8_22_9.mat,32.0,45,3,1,0.0,0,0.05,0,2.0,2.49341500014998,2.0,0.35274709993973374,0,1,0,0,0,0,0,0,0,1,0,0,0,0,0,0,0,0,0,0,787.8395415472779,0.9592591520117836,0.04796295760058918,1.0,4.0,0,70,0,0
32,11,16426,1,cdt,1,/content/G/Shareddrives/LC-Aging/Young Adult - Behavioral + Pupillometry Study/Data Collection/metacog YA/subject11_CD_session1_run1_8_22_9.mat,33.0,45,3,1,1.0,1,0.4,1,1.0,1.7171773000154644,4.0,0.5763928999658674,1,0,0,0,0,0,0,1,0,0,0,0,0,0,0,0,0,0,0,0,3693.657593123209,0.5621663206385012,0.22486652825540054,1.0,4.0,2,70,0,1
33,11,16426,1,cdt,1,/content/G/Shareddrives/LC-Aging/Young Adult - Behavioral + Pupillometry Study/Data Collection/metacog YA/subject11_CD_session1_run1_8_22_9.mat,34.0,5,1,1,0.0,0,0.05,0,2.0,1.6817256000358611,4.0,0.7644386000465602,0,1,0,0,0,0,0,0,0,0,0,1,0,0,0,0,0,0,0,0,946.3209169054442,1.152223203342803,0.05761116016714015,1.0,4.0,2,70,0,1
34,11,16426,1,cdt,1,/content/G/Shareddrives/LC-Aging/Young Adult - Behavioral + Pupillometry Study/Data Collection/metacog YA/subject11_CD_session1_run1_8_22_9.mat,35.0,90,4,1,1.0,1,0.4,1,1.0,2.152318200096488,4.0,0.6136399998795241,1,0,0,0,0,0,0,1,0,0,0,0,0,0,0,0,0,0,0,0,3958.5787965616046,0.602486727834166,0.24099469113366642,1.0,4.0,2,70,0,1
35,11,16426,1,cdt,1,/content/G/Shareddrives/LC-Aging/Young Adult - Behavioral + Pupillometry Study/Data Collection/metacog YA/subject11_CD_session1_run1_8_22_9.mat,36.0,5,1,1,0.0,1,0.4,0,2.0,1.9289153998252004,3.0,0.43517039995640516,0,1,0,0,0,0,0,0,0,0,1,0,0,0,0,0,0,0,0,0,4363.515759312321,0.6641172165031537,0.2656468866012615,1.0,4.0,0,70,0,0
36,11,16426,1,cdt,1,/content/G/Shareddrives/LC-Aging/Young Adult - Behavioral + Pupillometry Study/Data Collection/metacog YA/subject11_CD_session1_run1_8_22_9.mat,37.0,45,3,1,1.0,0,0.05,1,1.0,1.4935464998707175,4.0,1.517196899978444,1,0,0,0,0,0,0,1,0,0,0,0,0,0,0,0,0,0,0,0,1127.103151862464,1.3723403772829221,0.06861701886414612,1.0,4.0,2,70,0,1
37,11,16426,1,cdt,1,/content/G/Shareddrives/LC-Aging/Young Adult - Behavioral + Pupillometry Study/Data Collection/metacog YA/subject11_CD_session1_run1_8_22_9.mat,38.0,45,3,1,1.0,1,0.4,1,1.0,1.693659400101751,4.0,0.41165379993617535,1,0,0,0,0,0,0,1,0,0,0,0,0,0,0,0,0,0,0,0,3924.0888252148998,0.597237432304715,0.23889497292188602,1.0,4.0,2,70,0,1
38,11,16426,1,cdt,1,/content/G/Shareddrives/LC-Aging/Young Adult - Behavioral + Pupillometry Study/Data Collection/metacog YA/subject11_CD_session1_run1_8_22_9.mat,39.0,0,0,0,0.0,1,0.4,1,2.0,1.7171833999454975,3.0,0.42350210016593337,0,0,0,1,0,0,0,0,0,0,0,0,0,0,0,0,0,0,1,0,4191.4240687679085,0.6379252509387416,0.2551701003754967,1.0,4.0,0,70,0,0
39,11,16426,1,cdt,1,/content/G/Shareddrives/LC-Aging/Young Adult - Behavioral + Pupillometry Study/Data Collection/metacog YA/subject11_CD_session1_run1_8_22_9.mat,40.0,0,0,0,0.0,1,0.4,1,2.0,1.987567099975422,3.0,0.5410591000691056,0,0,0,1,0,0,0,0,0,0,0,0,0,0,0,0,0,0,1,0,4261.15329512894,0.6485378812749513,0.25941515250998054,1.0,4.0,0,70,0,0
40,11,16426,1,cdt,1,/content/G/Shareddrives/LC-Aging/Young Adult - Behavioral + Pupillometry Study/Data Collection/metacog YA/subject11_CD_session1_run1_8_22_9.mat,41.0,20,2,1,1.0,0,0.05,1,1.0,2.352138399844989,3.0,0.376436100108549,1,0,0,0,0,0,1,0,0,0,0,0,0,0,0,0,0,0,0,0,1325.0358166189112,1.6133396038218812,0.08066698019109407,1.0,4.0,0,70,0,0
41,11,16426,1,cdt,1,/content/G/Shareddrives/LC-Aging/Young Adult - Behavioral + Pupillometry Study/Data Collection/metacog YA/subject11_CD_session1_run1_8_22_9.mat,42.0,0,0,0,,0,0.05,1,,3.0108727999031544,2.0,0.41154529992491007,0,0,0,1,0,0,0,0,0,0,0,0,0,0,0,0,0,1,0,0,1027.0,1.250456593205893,0.06252282966029465,1.0,4.0,0,70,0,0
42,11,16426,1,cdt,1,/content/G/Shareddrives/LC-Aging/Young Adult - Behavioral + Pupillometry Study/Data Collection/metacog YA/subject11_CD_session1_run1_8_22_9.mat,43.0,45,3,1,1.0,1,0.4,1,1.0,1.4111953999381512,4.0,0.2823338999878615,1,0,0,0,0,0,0,1,0,0,0,0,0,0,0,0,0,0,0,0,3718.0315186246416,0.5658759769001341,0.22635039076005367,1.0,4.0,2,70,0,1
43,11,16426,1,cdt,1,/content/G/Shareddrives/LC-Aging/Young Adult - Behavioral + Pupillometry Study/Data Collection/metacog YA/subject11_CD_session1_run1_8_22_9.mat,44.0,20,2,1,0.0,1,0.4,0,2.0,2.905027899891138,2.0,0.2234284000005573,0,1,0,0,0,0,0,0,0,1,0,0,0,0,0,0,0,0,0,0,4269.081661891118,0.6497445607407643,0.2598978242963057,1.0,4.0,0,70,0,0
44,11,16426,1,cdt,1,/content/G/Shareddrives/LC-Aging/Young Adult - Behavioral + Pupillometry Study/Data Collection/metacog YA/subject11_CD_session1_run1_8_22_9.mat,45.0,0,0,0,0.0,0,0.05,1,2.0,1.7054022001102567,2.0,0.4704567000735551,0,0,0,1,0,0,0,0,0,0,0,0,0,0,0,0,0,1,0,0,921.2893982808023,1.1217452797769416,0.056087263988847086,1.0,4.0,0,70,0,0
45,11,16426,1,cdt,1,/content/G/Shareddrives/LC-Aging/Young Adult - Behavioral + Pupillometry Study/Data Collection/metacog YA/subject11_CD_session1_run1_8_22_9.mat,46.0,5,1,1,0.0,0,0.05,0,2.0,1.6702771000564098,3.0,0.5057802000083029,0,1,0,0,0,0,0,0,0,0,1,0,0,0,0,0,0,0,0,0,957.4627507163324,1.1657892983274472,0.05828946491637236,1.0,4.0,0,70,0,0
46,11,16426,1,cdt,1,/content/G/Shareddrives/LC-Aging/Young Adult - Behavioral + Pupillometry Study/Data Collection/metacog YA/subject11_CD_session1_run1_8_22_9.mat,47.0,45,3,1,1.0,1,0.4,1,1.0,1.7757914999965578,4.0,0.32934779999777675,1,0,0,0,0,0,0,1,0,0,0,0,0,0,0,0,0,0,0,0,4212.585959885387,0.6411460428414383,0.25645841713657536,1.0,4.0,2,70,0,1
47,11,16426,1,cdt,1,/content/G/Shareddrives/LC-Aging/Young Adult - Behavioral + Pupillometry Study/Data Collection/metacog YA/subject11_CD_session1_run1_8_22_9.mat,48.0,45,3,1,1.0,0,0.05,1,1.0,1.3290319999214262,4.0,0.4233975999522954,1,0,0,0,0,0,0,1,0,0,0,0,0,0,0,0,0,0,0,0,1006.445558739255,1.2254298779243333,0.061271493896216674,1.0,4.0,2,70,0,1
48,11,16426,1,cdt,1,/content/G/Shareddrives/LC-Aging/Young Adult - Behavioral + Pupillometry Study/Data Collection/metacog YA/subject11_CD_session1_run1_8_22_9.mat,49.0,45,3,1,1.0,0,0.05,1,1.0,1.3173132999800146,4.0,0.48220510012470186,1,0,0,0,0,0,0,1,0,0,0,0,0,0,0,0,0,0,0,0,1108.3696275071634,1.3495307774347538,0.0674765388717377,1.0,4.0,2,70,0,1
49,11,16426,1,cdt,1,/content/G/Shareddrives/LC-Aging/Young Adult - Behavioral + Pupillometry Study/Data Collection/metacog YA/subject11_CD_session1_run1_8_22_9.mat,50.0,0,0,0,0.0,1,0.4,1,2.0,2.3049449000973254,2.0,0.5645089000463486,0,0,0,1,0,0,0,0,0,0,0,0,0,0,0,0,0,1,0,0,4286.839541547278,0.6524472698081208,0.26097890792324835,1.0,4.0,0,70,0,0
50,11,16426,1,cdt,1,/content/G/Shareddrives/LC-Aging/Young Adult - Behavioral + Pupillometry Study/Data Collection/metacog YA/subject11_CD_session1_run1_8_22_9.mat,51.0,45,3,1,1.0,1,0.4,1,1.0,1.4702504000160843,4.0,0.41154340002685785,1,0,0,0,0,0,0,1,0,0,0,0,0,0,0,0,0,0,0,0,4060.4914040114613,0.6179975958863175,0.24719903835452706,1.0,4.0,2,70,0,1
51,11,16426,1,cdt,1,/content/G/Shareddrives/LC-Aging/Young Adult - Behavioral + Pupillometry Study/Data Collection/metacog YA/subject11_CD_session1_run1_8_22_9.mat,52.0,0,0,0,0.0,0,0.05,1,2.0,2.1053337000776082,3.0,0.3527862001210451,0,0,0,1,0,0,0,0,0,0,0,0,0,0,0,0,0,0,1,0,1570.240687679083,1.9118966122964605,0.09559483061482303,1.0,4.0,0,70,0,0
52,11,16426,1,cdt,1,/content/G/Shareddrives/LC-Aging/Young Adult - Behavioral + Pupillometry Study/Data Collection/metacog YA/subject11_CD_session1_run1_8_22_9.mat,53.0,90,4,1,1.0,0,0.05,1,1.0,2.540450499858707,4.0,0.2822645001579076,1,0,0,0,0,0,0,1,0,0,0,0,0,0,0,0,0,0,0,0,906.5171919770773,1.103758909018723,0.05518794545093616,1.0,4.0,2,70,0,1
53,11,16426,1,cdt,1,/content/G/Shareddrives/LC-Aging/Young Adult - Behavioral + Pupillometry Study/Data Collection/metacog YA/subject11_CD_session1_run1_8_22_9.mat,54.0,0,0,0,0.0,1,0.4,1,2.0,1.4936413001269102,4.0,0.37647469993680716,0,0,0,1,0,0,0,0,0,0,0,0,0,0,0,0,0,0,0,1,4075.4283667621776,0.6202709677892027,0.2481083871156811,1.0,4.0,2,70,0,1
54,11,16426,1,cdt,1,/content/G/Shareddrives/LC-Aging/Young Adult - Behavioral + Pupillometry Study/Data Collection/metacog YA/subject11_CD_session1_run1_8_22_9.mat,55.0,5,1,1,0.0,0,0.05,0,2.0,2.9755575999151915,3.0,0.49398610019125044,0,1,0,0,0,0,0,0,0,0,1,0,0,0,0,0,0,0,0,0,1064.4985673352435,1.2961141694085516,0.06480570847042759,1.0,4.0,0,70,0,0
55,11,16426,1,cdt,1,/content/G/Shareddrives/LC-Aging/Young Adult - Behavioral + Pupillometry Study/Data Collection/metacog YA/subject11_CD_session1_run1_8_22_9.mat,56.0,0,0,0,0.0,0,0.05,1,2.0,1.999192399904132,3.0,0.44695000001229346,0,0,0,1,0,0,0,0,0,0,0,0,0,0,0,0,0,0,1,0,1038.4756446991405,1.2644291302802149,0.06322145651401075,1.0,4.0,0,70,0,0
56,11,16426,1,cdt,1,/content/G/Shareddrives/LC-Aging/Young Adult - Behavioral + Pupillometry Study/Data Collection/metacog YA/subject11_CD_session1_run1_8_22_9.mat,57.0,20,2,1,0.0,0,0.05,0,2.0,1.823001699987799,3.0,0.25868759979493916,0,1,0,0,0,0,0,0,0,0,1,0,0,0,0,0,0,0,0,0,961.9684813753581,1.171275394344768,0.05856376971723841,1.0,4.0,0,70,0,0
57,11,16426,1,cdt,1,/content/G/Shareddrives/LC-Aging/Young Adult - Behavioral + Pupillometry Study/Data Collection/metacog YA/subject11_CD_session1_run1_8_22_9.mat,58.0,5,1,1,0.0,0,0.05,0,2.0,1.646621699910611,3.0,0.3528187000192702,0,1,0,0,0,0,0,0,0,0,1,0,0,0,0,0,0,0,0,0,1019.0157593123209,1.240735126400001,0.06203675632000006,1.0,4.0,0,70,0,0
58,11,16426,1,cdt,1,/content/G/Shareddrives/LC-Aging/Young Adult - Behavioral + Pupillometry Study/Data Collection/metacog YA/subject11_CD_session1_run1_8_22_9.mat,59.0,0,0,0,0.0,1,0.4,1,2.0,2.3523013999219984,3.0,0.14111139997839928,0,0,0,1,0,0,0,0,0,0,0,0,0,0,0,0,0,0,1,0,4369.352435530086,0.6650055454051634,0.2660022181620654,1.0,4.0,0,70,0,0
59,11,16426,1,cdt,1,/content/G/Shareddrives/LC-Aging/Young Adult - Behavioral + Pupillometry Study/Data Collection/metacog YA/subject11_CD_session1_run1_8_22_9.mat,60.0,20,2,1,,1,0.4,1,,3.010830600047484,2.0,0.011811200063675642,1,0,0,0,0,1,0,0,0,0,0,0,0,0,0,0,0,0,0,0,4298.116045845272,0.6541635282243504,0.2616654112897402,1.0,4.0,0,70,0,0
60,11,16426,1,cdt,1,/content/G/Shareddrives/LC-Aging/Young Adult - Behavioral + Pupillometry Study/Data Collection/metacog YA/subject11_CD_session1_run1_8_22_9.mat,61.0,5,1,1,0.0,0,0.05,0,2.0,1.7054129999596626,4.0,0.24725890019908547,0,1,0,0,0,0,0,0,0,0,0,1,0,0,0,0,0,0,0,0,642.7263610315186,0.782571972521026,0.0391285986260513,1.0,4.0,2,70,0,1
61,11,16426,1,cdt,1,/content/G/Shareddrives/LC-Aging/Young Adult - Behavioral + Pupillometry Study/Data Collection/metacog YA/subject11_CD_session1_run1_8_22_9.mat,62.0,0,0,0,0.0,0,0.05,1,2.0,1.8229279001243412,3.0,0.9289931999519467,0,0,0,1,0,0,0,0,0,0,0,0,0,0,0,0,0,0,1,0,1169.0057306590259,1.4233601980506827,0.07116800990253415,1.0,4.0,0,70,0,0
62,11,16426,1,cdt,1,/content/G/Shareddrives/LC-Aging/Young Adult - Behavioral + Pupillometry Study/Data Collection/metacog YA/subject11_CD_session1_run1_8_22_9.mat,63.0,45,3,1,1.0,1,0.4,1,1.0,2.081756900064647,4.0,0.329209899995476,1,0,0,0,0,0,0,1,0,0,0,0,0,0,0,0,0,0,0,0,4107.130372492837,0.6250959412658037,0.2500383765063215,1.0,4.0,2,70,0,1
63,11,16426,1,cdt,1,/content/G/Shareddrives/LC-Aging/Young Adult - Behavioral + Pupillometry Study/Data Collection/metacog YA/subject11_CD_session1_run1_8_22_9.mat,64.0,90,4,1,,1,0.4,1,,3.0107922998722643,2.0,0.8349716998636723,1,0,0,0,0,1,0,0,0,0,0,0,0,0,0,0,0,0,0,0,4173.3767908309455,0.6351784961084478,0.2540713984433791,1.0,4.0,0,70,0,0
64,11,16426,1,cdt,1,/content/G/Shareddrives/LC-Aging/Young Adult - Behavioral + Pupillometry Study/Data Collection/metacog YA/subject11_CD_session1_run1_8_22_9.mat,65.0,90,4,1,1.0,0,0.05,1,1.0,2.138434999855235,4.0,0.30569830001331866,1,0,0,0,0,0,0,1,0,0,0,0,0,0,0,0,0,0,0,0,1093.310888252149,1.3311955293463398,0.06655977646731699,1.0,4.0,2,70,0,1
65,11,16426,1,cdt,1,/content/G/Shareddrives/LC-Aging/Young Adult - Behavioral + Pupillometry Study/Data Collection/metacog YA/subject11_CD_session1_run1_8_22_9.mat,66.0,90,4,1,1.0,1,0.4,1,1.0,1.4231238001957536,4.0,0.24701619986444712,1,0,0,0,0,0,0,1,0,0,0,0,0,0,0,0,0,0,0,0,4170.446991404012,0.634732587270792,0.25389303490831683,1.0,4.0,2,70,0,1
66,11,16426,1,cdt,1,/content/G/Shareddrives/LC-Aging/Young Adult - Behavioral + Pupillometry Study/Data Collection/metacog YA/subject11_CD_session1_run1_8_22_9.mat,67.0,45,3,1,1.0,0,0.05,1,1.0,1.516863799886778,4.0,0.2586771999485791,1,0,0,0,0,0,0,1,0,0,0,0,0,0,0,0,0,0,0,0,1301.637535816619,1.5848502810381333,0.07924251405190667,1.0,4.0,2,70,0,1
67,11,16426,1,cdt,1,/content/G/Shareddrives/LC-Aging/Young Adult - Behavioral + Pupillometry Study/Data Collection/metacog YA/subject11_CD_session1_run1_8_22_9.mat,68.0,45,3,1,1.0,1,0.4,1,1.0,1.8229735000059009,4.0,0.30574329989030957,1,0,0,0,0,0,0,1,0,0,0,0,0,0,0,0,0,0,0,0,4310.19340974212,0.6560016756578169,0.26240067026312675,1.0,4.0,2,70,0,1
68,11,16426,1,cdt,1,/content/G/Shareddrives/LC-Aging/Young Adult - Behavioral + Pupillometry Study/Data Collection/metacog YA/subject11_CD_session1_run1_8_22_9.mat,69.0,0,0,0,0.0,1,0.4,1,2.0,1.3408203998114914,4.0,0.25872529996559024,0,0,0,1,0,0,0,0,0,0,0,0,0,0,0,0,0,0,0,1,4447.034383954155,0.6768285620288192,0.27073142481152773,1.0,4.0,2,70,0,1
69,11,16426,1,cdt,1,/content/G/Shareddrives/LC-Aging/Young Adult - Behavioral + Pupillometry Study/Data Collection/metacog YA/subject11_CD_session1_run1_8_22_9.mat,70.0,90,4,1,1.0,0,0.05,1,1.0,1.493805899983272,4.0,0.28188100014813244,1,0,0,0,0,0,0,1,0,0,0,0,0,0,0,0,0,0,0,0,1591.7378223495703,1.9380711339943628,0.09690355669971815,0.9259259259259259,4.0,2,70,0,1
70,11,16426,1,cdt,1,/content/G/Shareddrives/LC-Aging/Young Adult - Behavioral + Pupillometry Study/Data Collection/metacog YA/subject11_CD_session1_run1_8_22_9.mat,71.0,5,1,1,,1,0.4,1,,3.010844900039956,1.0,0.04662939999252558,1,0,0,0,1,0,0,0,0,0,0,0,0,0,0,0,0,0,0,0,3383.313753581662,0.5149326910966854,0.20597307643867416,0.9382716049382716,4.0,0,70,0,0
71,11,16426,1,cdt,1,/content/G/Shareddrives/LC-Aging/Young Adult - Behavioral + Pupillometry Study/Data Collection/metacog YA/subject11_CD_session1_run1_8_22_9.mat,72.0,20,2,1,1.0,0,0.05,1,1.0,0.011717699933797121,1.0,1.2114226000849158,1,0,0,0,1,0,0,0,0,0,0,0,0,0,0,0,0,0,0,0,866.8567335243553,1.0554690533597408,0.052773452667987046,1.0,4.0,0,70,0,0
72,11,16426,1,cdt,1,/content/G/Shareddrives/LC-Aging/Young Adult - Behavioral + Pupillometry Study/Data Collection/metacog YA/subject11_CD_session1_run1_8_22_9.mat,73.0,5,1,1,0.0,0,0.05,0,2.0,1.7289309001062065,3.0,0.211606299970299,0,1,0,0,0,0,0,0,0,0,1,0,0,0,0,0,0,0,0,0,787.8352435530086,0.9592539188518306,0.04796269594259154,1.0,4.0,0,70,0,0
73,11,16426,1,cdt,1,/content/G/Shareddrives/LC-Aging/Young Adult - Behavioral + Pupillometry Study/Data Collection/metacog YA/subject11_CD_session1_run1_8_22_9.mat,74.0,5,1,1,0.0,1,0.4,0,2.0,1.5878428998403251,4.0,0.2822535999584943,0,1,0,0,0,0,0,0,0,0,0,1,0,0,0,0,0,0,0,0,3738.339541547278,0.5689668119973331,0.22758672479893327,1.0,4.0,2,70,0,1
74,11,16426,1,cdt,1,/content/G/Shareddrives/LC-Aging/Young Adult - Behavioral + Pupillometry Study/Data Collection/metacog YA/subject11_CD_session1_run1_8_22_9.mat,75.0,5,1,1,0.0,1,0.4,0,2.0,1.6586137998383492,4.0,0.3881169001106173,0,1,0,0,0,0,0,0,0,0,0,1,0,0,0,0,0,0,0,0,4558.5,0.6937933763545597,0.2775173505418239,1.0,4.0,2,70,0,1
75,11,16426,1,cdt,1,/content/G/Shareddrives/LC-Aging/Young Adult - Behavioral + Pupillometry Study/Data Collection/metacog YA/subject11_CD_session1_run1_8_22_9.mat,76.0,0,0,0,0.0,0,0.05,1,2.0,1.5760074998252094,3.0,0.15287959994748235,0,0,0,1,0,0,0,0,0,0,0,0,0,0,0,0,0,0,1,0,1157.3997134670487,1.4092289217911222,0.07046144608955611,1.0,4.0,0,70,0,0
76,11,16426,1,cdt,1,/content/G/Shareddrives/LC-Aging/Young Adult - Behavioral + Pupillometry Study/Data Collection/metacog YA/subject11_CD_session1_run1_8_22_9.mat,77.0,5,1,1,0.0,0,0.05,0,2.0,1.3761197999119759,4.0,0.16476670000702143,0,1,0,0,0,0,0,0,0,0,0,1,0,0,0,0,0,0,0,0,1017.5630372492836,1.2389663183359108,0.061948315916795546,1.0,4.0,2,70,0,1
77,11,16426,1,cdt,1,/content/G/Shareddrives/LC-Aging/Young Adult - Behavioral + Pupillometry Study/Data Collection/metacog YA/subject11_CD_session1_run1_8_22_9.mat,78.0,45,3,1,1.0,1,0.4,1,1.0,1.740640299860388,4.0,0.3171974001452327,1,0,0,0,0,0,0,1,0,0,0,0,0,0,0,0,0,0,0,0,3519.849570200573,0.5357131331731055,0.21428525326924225,0.9259259259259259,4.0,2,70,0,1
78,11,16426,1,cdt,1,/content/G/Shareddrives/LC-Aging/Young Adult - Behavioral + Pupillometry Study/Data Collection/metacog YA/subject11_CD_session1_run1_8_22_9.mat,79.0,5,1,1,0.0,0,0.05,0,2.0,2.5608667000196874,2.0,0.293901699827984,0,1,0,0,0,0,0,0,0,1,0,0,0,0,0,0,0,0,0,0,1092.9971346704872,1.330813508669776,0.06654067543348881,1.0,4.0,0,70,0,0
79,11,16426,1,cdt,1,/content/G/Shareddrives/LC-Aging/Young Adult - Behavioral + Pupillometry Study/Data Collection/metacog YA/subject11_CD_session1_run1_8_22_9.mat,80.0,5,1,1,0.0,0,0.05,0,2.0,1.5760717999655753,4.0,0.17652170010842383,0,1,0,0,0,0,0,0,0,0,0,1,0,0,0,0,0,0,0,0,1061.8567335243554,1.292897520424151,0.06464487602120755,1.0,4.0,2,70,0,1
80,11,16426,1,cdt,1,/content/G/Shareddrives/LC-Aging/Young Adult - Behavioral + Pupillometry Study/Data Collection/metacog YA/subject11_CD_session1_run1_8_22_9.mat,81.0,20,2,1,1.0,1,0.4,1,1.0,2.6933494000695646,4.0,0.635089100105688,1,0,0,0,0,0,0,1,0,0,0,0,0,0,0,0,0,0,0,0,4127.603151862464,0.6282118519211104,0.2512847407684442,1.0,4.0,2,70,0,1
81,11,16426,1,cdt,1,/content/G/Shareddrives/LC-Aging/Young Adult - Behavioral + Pupillometry Study/Data Collection/metacog YA/subject11_CD_session1_run1_8_22_9.mat,82.0,45,3,1,1.0,1,0.4,1,1.0,1.3760460000485182,4.0,0.27037609997205436,1,0,0,0,0,0,0,1,0,0,0,0,0,0,0,0,0,0,0,0,4210.303724928367,0.6407986918495627,0.2563194767398251,1.0,4.0,2,70,0,1
82,11,16426,1,cdt,1,/content/G/Shareddrives/LC-Aging/Young Adult - Behavioral + Pupillometry Study/Data Collection/metacog YA/subject11_CD_session1_run1_8_22_9.mat,83.0,0,0,0,0.0,1,0.4,1,2.0,1.446762999985367,4.0,0.21174880000762641,0,0,0,1,0,0,0,0,0,0,0,0,0,0,0,0,0,0,0,1,4548.706303724928,0.6923027979613003,0.27692111918452017,1.0,4.0,2,70,0,1
83,11,16426,1,cdt,1,/content/G/Shareddrives/LC-Aging/Young Adult - Behavioral + Pupillometry Study/Data Collection/metacog YA/subject11_CD_session1_run1_8_22_9.mat,84.0,90,4,1,1.0,1,0.4,1,1.0,1.3054614998400211,4.0,0.15282089984975755,1,0,0,0,0,0,0,1,0,0,0,0,0,0,0,0,0,0,0,0,4482.597421203438,0.6822411757584679,0.2728964703033872,1.0,4.0,2,70,0,1
84,11,16426,1,cdt,1,/content/G/Shareddrives/LC-Aging/Young Adult - Behavioral + Pupillometry Study/Data Collection/metacog YA/subject11_CD_session1_run1_8_22_9.mat,85.0,5,1,1,0.0,1,0.4,0,2.0,2.3169601999688894,3.0,0.36451249988749623,0,1,0,0,0,0,0,0,0,0,1,0,0,0,0,0,0,0,0,0,4181.19770773639,0.6363688219494079,0.25454752877976317,1.0,4.0,0,70,0,0
85,11,16426,1,cdt,1,/content/G/Shareddrives/LC-Aging/Young Adult - Behavioral + Pupillometry Study/Data Collection/metacog YA/subject11_CD_session1_run1_8_22_9.mat,86.0,90,4,1,1.0,1,0.4,1,1.0,1.6583112999796867,4.0,0.5055815998930484,1,0,0,0,0,0,0,1,0,0,0,0,0,0,0,0,0,0,0,0,4302.389684813754,0.6548139663968333,0.2619255865587333,1.0,4.0,2,70,0,1
86,11,16426,1,cdt,1,/content/G/Shareddrives/LC-Aging/Young Adult - Behavioral + Pupillometry Study/Data Collection/metacog YA/subject11_CD_session1_run1_8_22_9.mat,87.0,0,0,0,1.0,1,0.4,0,1.0,2.8462275001220405,4.0,0.21180549985729158,0,0,1,0,0,0,0,0,0,0,0,0,0,0,0,1,0,0,0,0,3872.1776504297995,0.5893366690657798,0.23573466762631193,1.0,4.0,2,70,0,1
87,11,16426,1,cdt,1,/content/G/Shareddrives/LC-Aging/Young Adult - Behavioral + Pupillometry Study/Data Collection/metacog YA/subject11_CD_session1_run1_8_22_9.mat,88.0,90,4,1,1.0,0,0.05,1,1.0,1.2819461000617594,4.0,0.23512249998748302,1,0,0,0,0,0,0,1,0,0,0,0,0,0,0,0,0,0,0,0,1290.7822349570201,1.5716330633836844,0.07858165316918422,1.0,4.0,2,70,0,1
88,11,16426,1,cdt,1,/content/G/Shareddrives/LC-Aging/Young Adult - Behavioral + Pupillometry Study/Data Collection/metacog YA/subject11_CD_session1_run1_8_22_9.mat,89.0,20,2,1,1.0,1,0.4,1,1.0,1.8465148000977933,3.0,0.6821971000172198,1,0,0,0,0,0,1,0,0,0,0,0,0,0,0,0,0,0,0,0,4231.885386819485,0.6440833719133514,0.2576333487653406,1.0,4.0,0,70,0,0
89,11,16426,1,cdt,1,/content/G/Shareddrives/LC-Aging/Young Adult - Behavioral + Pupillometry Study/Data Collection/metacog YA/subject11_CD_session1_run1_8_22_9.mat,90.0,90,4,1,1.0,0,0.05,1,1.0,1.540830499958247,4.0,0.35291190003044903,1,0,0,0,0,0,0,1,0,0,0,0,0,0,0,0,0,0,0,0,1114.6876790830945,1.35722352256556,0.06786117612827801,1.0,4.0,2,70,0,1
90,11,16426,1,cdt,1,/content/G/Shareddrives/LC-Aging/Young Adult - Behavioral + Pupillometry Study/Data Collection/metacog YA/subject11_CD_session1_run1_8_22_9.mat,91.0,20,2,1,,0,0.05,1,,3.0108193999622017,1.0,0.011675999965518713,1,0,0,0,1,0,0,0,0,0,0,0,0,0,0,0,0,0,0,0,1270.8438395415474,1.5473564343620447,0.07736782171810223,1.0,4.0,0,70,0,0
91,11,16426,1,cdt,1,/content/G/Shareddrives/LC-Aging/Young Adult - Behavioral + Pupillometry Study/Data Collection/metacog YA/subject11_CD_session1_run1_8_22_9.mat,92.0,0,0,0,,1,0.4,1,,0.011715899920091033,1.0,1.2231852998957038,0,0,0,1,0,0,0,0,0,0,0,0,0,0,0,0,1,0,0,0,3580.131805157593,0.5448879528122478,0.21795518112489914,0.8950617283950617,4.0,0,70,0,0
92,11,16426,1,cdt,1,/content/G/Shareddrives/LC-Aging/Young Adult - Behavioral + Pupillometry Study/Data Collection/metacog YA/subject11_CD_session1_run1_8_22_9.mat,93.0,90,4,1,1.0,0,0.05,1,1.0,1.105370899895206,4.0,0.22330119996331632,1,0,0,0,0,0,0,1,0,0,0,0,0,0,0,0,0,0,0,0,1211.2808022922636,1.4748335593476969,0.07374167796738486,1.0,4.0,2,70,0,1
93,11,16426,1,cdt,1,/content/G/Shareddrives/LC-Aging/Young Adult - Behavioral + Pupillometry Study/Data Collection/metacog YA/subject11_CD_session1_run1_8_22_9.mat,94.0,20,2,1,1.0,0,0.05,1,1.0,2.469976000022143,2.0,0.24702499993145466,1,0,0,0,0,1,0,0,0,0,0,0,0,0,0,0,0,0,0,0,1179.3438395415474,1.4359476921241292,0.07179738460620647,1.0,4.0,0,70,0,0
94,11,16426,1,cdt,1,/content/G/Shareddrives/LC-Aging/Young Adult - Behavioral + Pupillometry Study/Data Collection/metacog YA/subject11_CD_session1_run1_8_22_9.mat,95.0,5,1,1,0.0,1,0.4,0,2.0,1.49371870001778,4.0,0.5291875000111759,0,1,0,0,0,0,0,0,0,0,0,1,0,0,0,0,0,0,0,0,4409.832378223496,0.671166501008081,0.2684666004032324,1.0,4.0,2,70,0,1
95,11,16426,1,cdt,1,/content/G/Shareddrives/LC-Aging/Young Adult - Behavioral + Pupillometry Study/Data Collection/metacog YA/subject11_CD_session1_run1_8_22_9.mat,96.0,0,0,0,0.0,0,0.05,1,2.0,1.470318099949509,4.0,0.08243560022674501,0,0,0,1,0,0,0,0,0,0,0,0,0,0,0,0,0,0,0,1,1363.593123209169,1.6602862817596116,0.08301431408798059,1.0,4.0,2,70,0,1
96,11,16426,1,cdt,1,/content/G/Shareddrives/LC-Aging/Young Adult - Behavioral + Pupillometry Study/Data Collection/metacog YA/subject11_CD_session1_run1_8_22_9.mat,97.0,20,2,1,1.0,0,0.05,1,1.0,2.563712199917063,3.0,0.14114219998009503,1,0,0,0,0,0,1,0,0,0,0,0,0,0,0,0,0,0,0,0,1090.1074498567336,1.3272950807947566,0.06636475403973784,1.0,4.0,0,70,0,0
97,11,16426,1,cdt,1,/content/G/Shareddrives/LC-Aging/Young Adult - Behavioral + Pupillometry Study/Data Collection/metacog YA/subject11_CD_session1_run1_8_22_9.mat,98.0,90,4,1,1.0,1,0.4,1,1.0,1.8816726000513881,4.0,0.3058864001650363,1,0,0,0,0,0,0,1,0,0,0,0,0,0,0,0,0,0,0,0,4212.488538681949,0.641131215554905,0.25645248622196204,1.0,4.0,2,70,0,1
98,11,16426,1,cdt,1,/content/G/Shareddrives/LC-Aging/Young Adult - Behavioral + Pupillometry Study/Data Collection/metacog YA/subject11_CD_session1_run1_8_22_9.mat,99.0,5,1,1,1.0,0,0.05,1,1.0,2.9285090998746455,2.0,0.22325129993259907,1,0,0,0,0,1,0,0,0,0,0,0,0,0,0,0,0,0,0,0,1243.5501432664757,1.5141241242742915,0.07570620621371459,1.0,4.0,0,70,0,0
99,11,16426,1,cdt,1,/content/G/Shareddrives/LC-Aging/Young Adult - Behavioral + Pupillometry Study/Data Collection/metacog YA/subject11_CD_session1_run1_8_22_9.mat,100.0,45,3,1,1.0,0,0.05,1,1.0,1.611481900094077,4.0,0.3174862000159919,1,0,0,0,0,0,0,1,0,0,0,0,0,0,0,0,0,0,0,0,1009.285100286533,1.2288872522665686,0.06144436261332844,1.0,4.0,2,70,0,1
100,11,16426,1,cdt,1,/content/G/Shareddrives/LC-Aging/Young Adult - Behavioral + Pupillometry Study/Data Collection/metacog YA/subject11_CD_session1_run1_8_22_9.mat,101.0,20,2,1,1.0,1,0.4,1,1.0,1.4466405001003295,4.0,0.19996849982999265,1,0,0,0,0,0,0,1,0,0,0,0,0,0,0,0,0,0,0,0,4124.590257879656,0.6277532962802349,0.251101318512094,1.0,4.0,2,70,0,1
101,11,16426,1,cdt,1,/content/G/Shareddrives/LC-Aging/Young Adult - Behavioral + Pupillometry Study/Data Collection/metacog YA/subject11_CD_session1_run1_8_22_9.mat,102.0,45,3,1,1.0,0,0.05,1,1.0,1.4937615999951959,4.0,0.19980890001170337,1,0,0,0,0,0,0,1,0,0,0,0,0,0,0,0,0,0,0,0,1055.3424068767908,1.2849657943221608,0.06424828971610805,1.0,4.0,2,70,0,1
102,11,16426,1,cdt,1,/content/G/Shareddrives/LC-Aging/Young Adult - Behavioral + Pupillometry Study/Data Collection/metacog YA/subject11_CD_session1_run1_8_22_9.mat,103.0,20,2,1,1.0,1,0.4,1,1.0,1.3643696000799537,4.0,0.058751200092956424,1,0,0,0,0,0,0,1,0,0,0,0,0,0,0,0,0,0,0,0,3984.0945558739254,0.6063701686159024,0.24254806744636098,1.0,4.0,2,70,0,1
103,11,16426,1,cdt,1,/content/G/Shareddrives/LC-Aging/Young Adult - Behavioral + Pupillometry Study/Data Collection/metacog YA/subject11_CD_session1_run1_8_22_9.mat,104.0,90,4,1,1.0,0,0.05,1,1.0,1.5406680000014603,4.0,0.08238589996472001,1,0,0,0,0,0,0,1,0,0,0,0,0,0,0,0,0,0,0,0,1216.7220630372492,1.4814587398481056,0.07407293699240529,1.0,4.0,2,70,0,1
104,11,16426,1,cdt,1,/content/G/Shareddrives/LC-Aging/Young Adult - Behavioral + Pupillometry Study/Data Collection/metacog YA/subject11_CD_session1_run1_8_22_9.mat,105.0,0,0,0,0.0,1,0.4,1,2.0,1.3760269999038428,4.0,0.14101179991848767,0,0,0,1,0,0,0,0,0,0,0,0,0,0,0,0,0,0,0,1,4138.862464183381,0.6299254937573635,0.2519701975029454,1.0,4.0,2,70,0,1
105,11,16426,1,cdt,1,/content/G/Shareddrives/LC-Aging/Young Adult - Behavioral + Pupillometry Study/Data Collection/metacog YA/subject11_CD_session1_run1_8_22_9.mat,106.0,0,0,0,0.0,1,0.4,1,2.0,1.4819672999437898,4.0,0.18813439994119108,0,0,0,1,0,0,0,0,0,0,0,0,0,0,0,0,0,0,0,1,4730.66905444126,0.7199971165288658,0.28799884661154634,1.0,4.0,2,70,0,1
106,11,16426,1,cdt,1,/content/G/Shareddrives/LC-Aging/Young Adult - Behavioral + Pupillometry Study/Data Collection/metacog YA/subject11_CD_session1_run1_8_22_9.mat,107.0,20,2,1,1.0,0,0.05,1,1.0,1.4230571000371128,4.0,1.1642966999206692,1,0,0,0,0,0,0,1,0,0,0,0,0,0,0,0,0,0,0,0,1446.727793696275,1.7615095503424754,0.08807547751712377,0.9197530864197531,4.0,2,70,0,1
107,11,16426,1,cdt,1,/content/G/Shareddrives/LC-Aging/Young Adult - Behavioral + Pupillometry Study/Data Collection/metacog YA/subject11_CD_session1_run1_8_22_9.mat,108.0,45,3,1,1.0,0,0.05,1,1.0,1.0816418998874724,4.0,0.12932810001075268,1,0,0,0,0,0,0,1,0,0,0,0,0,0,0,0,0,0,0,0,993.5329512893983,1.209707721039082,0.06048538605195412,1.0,4.0,2,70,0,1
108,11,16426,1,cdt,1,/content/G/Shareddrives/LC-Aging/Young Adult - Behavioral + Pupillometry Study/Data Collection/metacog YA/subject11_CD_session1_run1_8_22_9.mat,109.0,20,2,1,1.0,1,0.4,1,1.0,1.8936141999438405,3.0,0.04706769995391369,1,0,0,0,0,0,1,0,0,0,0,0,0,0,0,0,0,0,0,0,4353.593123209169,0.6626070137600707,0.2650428055040283,1.0,4.0,0,70,0,0
109,11,16426,1,cdt,1,/content/G/Shareddrives/LC-Aging/Young Adult - Behavioral + Pupillometry Study/Data Collection/metacog YA/subject11_CD_session1_run1_8_22_9.mat,110.0,20,2,1,1.0,1,0.4,1,1.0,1.5055464000906795,3.0,0.058810200076550245,1,0,0,0,0,0,1,0,0,0,0,0,0,0,0,0,0,0,0,0,4026.808022922636,0.6128710615674291,0.24514842462697164,1.0,4.0,0,70,0,0
110,11,16426,1,cdt,1,/content/G/Shareddrives/LC-Aging/Young Adult - Behavioral + Pupillometry Study/Data Collection/metacog YA/subject11_CD_session1_run1_8_22_9.mat,111.0,0,0,0,0.0,1,0.4,1,2.0,1.6936139999888837,4.0,1.105482299812138,0,0,0,1,0,0,0,0,0,0,0,0,0,0,0,0,0,0,0,1,4393.19770773639,0.66863474183252,0.267453896733008,1.0,4.0,2,70,0,1
111,11,16426,1,cdt,1,/content/G/Shareddrives/LC-Aging/Young Adult - Behavioral + Pupillometry Study/Data Collection/metacog YA/subject11_CD_session1_run1_8_22_9.mat,112.0,45,3,1,1.0,0,0.05,1,1.0,1.8112194000277668,4.0,0.09417559998109937,1,0,0,0,0,0,0,1,0,0,0,0,0,0,0,0,0,0,0,0,1296.17335243553,1.5781971903513088,0.07890985951756545,0.9691358024691358,4.0,2,70,0,1
112,11,16426,1,cdt,1,/content/G/Shareddrives/LC-Aging/Young Adult - Behavioral + Pupillometry Study/Data Collection/metacog YA/subject11_CD_session1_run1_8_22_9.mat,113.0,5,1,1,1.0,1,0.4,1,1.0,2.79925509984605,4.0,0.5764142000116408,1,0,0,0,0,0,0,1,0,0,0,0,0,0,0,0,0,0,0,0,3772.1260744985675,0.5741090457960805,0.22964361831843222,1.0,4.0,2,70,0,1
113,11,16426,1,cdt,1,/content/G/Shareddrives/LC-Aging/Young Adult - Behavioral + Pupillometry Study/Data Collection/metacog YA/subject11_CD_session1_run1_8_22_9.mat,114.0,0,0,0,0.0,0,0.05,1,2.0,1.4466349999420345,4.0,0.011847699992358685,0,0,0,1,0,0,0,0,0,0,0,0,0,0,0,0,0,0,0,1,1147.1461318051577,1.3967443465300835,0.06983721732650418,1.0,4.0,2,70,0,1
114,11,16426,1,cdt,1,/content/G/Shareddrives/LC-Aging/Young Adult - Behavioral + Pupillometry Study/Data Collection/metacog YA/subject11_CD_session1_run1_8_22_9.mat,115.0,45,3,1,1.0,1,0.4,1,1.0,1.6936363000422716,3.0,0.09405110008083284,1,0,0,0,0,0,1,0,0,0,0,0,0,0,0,0,0,0,0,0,4251.954154727794,0.6471377929392113,0.25885511717568455,1.0,4.0,0,70,0,0
115,11,16426,1,cdt,1,/content/G/Shareddrives/LC-Aging/Young Adult - Behavioral + Pupillometry Study/Data Collection/metacog YA/subject11_CD_session1_run1_8_22_9.mat,116.0,5,1,1,1.0,0,0.05,1,1.0,2.375798999797553,2.0,0.6939292999450117,1,0,0,0,0,1,0,0,0,0,0,0,0,0,0,0,0,0,0,0,1541.8595988538682,1.877340312740616,0.09386701563703082,1.0,4.0,0,70,0,0
116,11,16426,1,cdt,1,/content/G/Shareddrives/LC-Aging/Young Adult - Behavioral + Pupillometry Study/Data Collection/metacog YA/subject11_CD_session1_run1_8_22_9.mat,117.0,0,0,0,,0,0.05,1,,3.010885899886489,1.0,0.011779200052842498,0,0,0,1,0,0,0,0,0,0,0,0,0,0,0,0,1,0,0,0,904.5601719197708,1.1013760768534893,0.05506880384267447,1.0,4.0,0,70,0,0
117,11,16426,1,cdt,1,/content/G/Shareddrives/LC-Aging/Young Adult - Behavioral + Pupillometry Study/Data Collection/metacog YA/subject11_CD_session1_run1_8_22_9.mat,118.0,20,2,1,0.0,1,0.4,0,2.0,0.013333600014448166,1.0,1.2114209001883864,0,1,0,0,0,0,0,0,1,0,0,0,0,0,0,0,0,0,0,0,3739.0573065902577,0.5690760542113505,0.22763042168454023,1.0,4.0,0,70,0,0
118,11,16426,1,cdt,1,/content/G/Shareddrives/LC-Aging/Young Adult - Behavioral + Pupillometry Study/Data Collection/metacog YA/subject11_CD_session1_run1_8_22_9.mat,119.0,0,0,0,0.0,0,0.05,1,2.0,1.8817354999482632,4.0,0.08220739988610148,0,0,0,1,0,0,0,0,0,0,0,0,0,0,0,0,0,0,0,1,1422.5286532951288,1.7320451154208312,0.08660225577104157,0.7469135802469136,4.0,2,70,0,1
119,11,16426,1,cdt,1,/content/G/Shareddrives/LC-Aging/Young Adult - Behavioral + Pupillometry Study/Data Collection/metacog YA/subject11_CD_session1_run1_8_22_9.mat,120.0,0,0,0,0.0,0,0.05,1,2.0,2.2935099999886006,4.0,0.4351385999470949,0,0,0,1,0,0,0,0,0,0,0,0,0,0,0,0,0,0,0,1,988.6260744985674,1.2037331967594878,0.060186659837974395,1.0,4.0,2,70,0,1
120,11,16426,1,cdt,1,/content/G/Shareddrives/LC-Aging/Young Adult - Behavioral + Pupillometry Study/Data Collection/metacog YA/subject11_CD_session1_run1_8_22_9.mat,121.0,45,3,1,1.0,1,0.4,1,1.0,1.3643024999182671,4.0,0.41153349983505905,1,0,0,0,0,0,0,1,0,0,0,0,0,0,0,0,0,0,0,0,1150.2965616045844,0.17507253159694758,0.07002901263877903,0.0,4.0,2,70,0,1
121,11,16426,1,cdt,1,/content/G/Shareddrives/LC-Aging/Young Adult - Behavioral + Pupillometry Study/Data Collection/metacog YA/subject11_CD_session1_run1_8_22_9.mat,122.0,0,0,0,0.0,0,0.05,1,2.0,1.916874699993059,4.0,0.7762736000586301,0,0,0,1,0,0,0,0,0,0,0,0,0,0,0,0,0,0,0,1,1569.8610315186247,1.9114343498339517,0.0955717174916976,1.0,4.0,2,70,0,1
122,11,16426,1,cdt,1,/content/G/Shareddrives/LC-Aging/Young Adult - Behavioral + Pupillometry Study/Data Collection/metacog YA/subject11_CD_session1_run1_8_22_9.mat,123.0,5,1,1,0.0,0,0.05,0,2.0,2.9284880000632256,4.0,0.1645780000835657,0,1,0,0,0,0,0,0,0,0,0,1,0,0,0,0,0,0,0,0,1125.9799426934098,1.3709727781485568,0.06854863890742785,1.0,4.0,2,70,0,1
123,11,16426,1,cdt,1,/content/G/Shareddrives/LC-Aging/Young Adult - Behavioral + Pupillometry Study/Data Collection/metacog YA/subject11_CD_session1_run1_8_22_9.mat,124.0,0,0,0,0.0,0,0.05,1,2.0,1.7759707998484373,3.0,0.04701710003428161,0,0,0,1,0,0,0,0,0,0,0,0,0,0,0,0,0,0,1,0,1174.7034383954156,1.4302976237616163,0.07151488118808082,1.0,4.0,0,70,0,0
124,11,16426,1,cdt,1,/content/G/Shareddrives/LC-Aging/Young Adult - Behavioral + Pupillometry Study/Data Collection/metacog YA/subject11_CD_session1_run1_8_22_9.mat,125.0,0,0,0,0.0,0,0.05,1,2.0,1.4583197000902146,4.0,0.15286080003716052,0,0,0,1,0,0,0,0,0,0,0,0,0,0,0,0,0,0,0,1,1055.189111747851,1.2847791449505064,0.06423895724752533,1.0,4.0,2,70,0,1
125,11,16426,1,cdt,1,/content/G/Shareddrives/LC-Aging/Young Adult - Behavioral + Pupillometry Study/Data Collection/metacog YA/subject11_CD_session1_run1_8_22_9.mat,126.0,45,3,1,1.0,0,0.05,1,1.0,1.4230740000493824,4.0,0.25868469988927245,1,0,0,0,0,0,0,1,0,0,0,0,0,0,0,0,0,0,0,0,950.8581661891118,1.1577476758664456,0.05788738379332228,1.0,4.0,2,70,0,1
126,11,16426,1,cdt,1,/content/G/Shareddrives/LC-Aging/Young Adult - Behavioral + Pupillometry Study/Data Collection/metacog YA/subject11_CD_session1_run1_8_22_9.mat,127.0,20,2,1,1.0,1,0.4,1,1.0,1.2349330000579357,4.0,0.14115580008365214,1,0,0,0,0,0,0,1,0,0,0,0,0,0,0,0,0,0,0,0,3919.408309455587,0.5965250684061224,0.238610027362449,1.0,4.0,2,70,0,1
127,11,16426,1,cdt,1,/content/G/Shareddrives/LC-Aging/Young Adult - Behavioral + Pupillometry Study/Data Collection/metacog YA/subject11_CD_session1_run1_8_22_9.mat,128.0,20,2,1,1.0,0,0.05,1,1.0,1.082147799897939,4.0,0.12932730000466108,1,0,0,0,0,0,0,1,0,0,0,0,0,0,0,0,0,0,0,0,1109.5028653295128,1.350910587275676,0.0675455293637838,1.0,4.0,2,70,0,1
128,11,16426,1,cdt,1,/content/G/Shareddrives/LC-Aging/Young Adult - Behavioral + Pupillometry Study/Data Collection/metacog YA/subject11_CD_session1_run1_8_22_9.mat,129.0,45,3,1,1.0,1,0.4,1,1.0,0.9997546998783946,4.0,0.1526434998959303,1,0,0,0,0,0,0,1,0,0,0,0,0,0,0,0,0,0,0,0,4307.39111747851,0.6555751731216531,0.26223006924866127,1.0,4.0,2,70,0,1
129,11,16426,1,cdt,1,/content/G/Shareddrives/LC-Aging/Young Adult - Behavioral + Pupillometry Study/Data Collection/metacog YA/subject11_CD_session1_run1_8_22_9.mat,130.0,5,1,1,0.0,1,0.4,0,2.0,1.9994183999951929,4.0,0.1527799000032246,0,1,0,0,0,0,0,0,0,0,0,1,0,0,0,0,0,0,0,0,4521.7722063037245,0.6882034893315055,0.27528139573260224,1.0,4.0,2,70,0,1
130,11,16426,1,cdt,1,/content/G/Shareddrives/LC-Aging/Young Adult - Behavioral + Pupillometry Study/Data Collection/metacog YA/subject11_CD_session1_run1_8_22_9.mat,131.0,45,3,1,1.0,1,0.4,1,1.0,1.5408234000205994,3.0,0.41157759982161224,1,0,0,0,0,0,1,0,0,0,0,0,0,0,0,0,0,0,0,0,4587.240687679083,0.6981676439302147,0.27926705757208586,1.0,4.0,0,70,0,0
131,11,16426,1,cdt,1,/content/G/Shareddrives/LC-Aging/Young Adult - Behavioral + Pupillometry Study/Data Collection/metacog YA/subject11_CD_session1_run1_8_22_9.mat,132.0,20,2,1,1.0,0,0.05,1,1.0,1.9758117001038045,3.0,0.10586080001667142,1,0,0,0,0,0,1,0,0,0,0,0,0,0,0,0,0,0,0,0,1213.419770773639,1.4774379286176047,0.07387189643088024,1.0,4.0,0,70,0,0
132,11,16426,1,cdt,1,/content/G/Shareddrives/LC-Aging/Young Adult - Behavioral + Pupillometry Study/Data Collection/metacog YA/subject11_CD_session1_run1_8_22_9.mat,133.0,20,2,1,1.0,1,0.4,1,1.0,1.4117002999410033,3.0,0.14116330002434552,1,0,0,0,0,0,1,0,0,0,0,0,0,0,0,0,0,0,0,0,3952.800859598854,0.6016073389137425,0.240642935565497,1.0,4.0,0,70,0,0
133,11,16426,1,cdt,1,/content/G/Shareddrives/LC-Aging/Young Adult - Behavioral + Pupillometry Study/Data Collection/metacog YA/subject11_CD_session1_run1_8_22_9.mat,134.0,90,4,1,1.0,1,0.4,1,1.0,0.9761185999959707,4.0,0.03528150008060038,1,0,0,0,0,0,0,1,0,0,0,0,0,0,0,0,0,0,0,0,4561.243553008596,0.6942109389091373,0.27768437556365494,1.0,4.0,2,70,0,1
134,11,16426,1,cdt,1,/content/G/Shareddrives/LC-Aging/Young Adult - Behavioral + Pupillometry Study/Data Collection/metacog YA/subject11_CD_session1_run1_8_22_9.mat,135.0,90,4,1,1.0,0,0.05,1,1.0,1.0939622002188116,4.0,0.2234348999336362,1,0,0,0,0,0,0,1,0,0,0,0,0,0,0,0,0,0,0,0,1299.9054441260746,1.5827413175771028,0.07913706587885515,1.0,4.0,2,70,0,1
135,11,16426,1,cdt,1,/content/G/Shareddrives/LC-Aging/Young Adult - Behavioral + Pupillometry Study/Data Collection/metacog YA/subject11_CD_session1_run1_8_22_9.mat,136.0,90,4,1,1.0,1,0.4,1,1.0,1.2232243998441845,4.0,0.45864660013467073,1,0,0,0,0,0,0,1,0,0,0,0,0,0,0,0,0,0,0,0,4182.388252148997,0.636550020112778,0.2546200080451112,1.0,4.0,2,70,0,1
136,11,16426,1,cdt,1,/content/G/Shareddrives/LC-Aging/Young Adult - Behavioral + Pupillometry Study/Data Collection/metacog YA/subject11_CD_session1_run1_8_22_9.mat,137.0,90,4,1,1.0,1,0.4,1,1.0,1.3879413998220116,4.0,0.2821698000188917,1,0,0,0,0,0,0,1,0,0,0,0,0,0,0,0,0,0,0,0,4534.810888252149,0.6901879471953228,0.27607517887812916,1.0,4.0,2,70,0,1
137,11,16426,1,cdt,1,/content/G/Shareddrives/LC-Aging/Young Adult - Behavioral + Pupillometry Study/Data Collection/metacog YA/subject11_CD_session1_run1_8_22_9.mat,138.0,90,4,1,1.0,1,0.4,1,1.0,0.9526283000595868,4.0,0.30568119999952614,1,0,0,0,0,0,0,1,0,0,0,0,0,0,0,0,0,0,0,0,4430.851002865329,0.6743654880776404,0.2697461952310562,1.0,4.0,2,70,0,1
138,11,16426,1,cdt,1,/content/G/Shareddrives/LC-Aging/Young Adult - Behavioral + Pupillometry Study/Data Collection/metacog YA/subject11_CD_session1_run1_8_22_9.mat,139.0,20,2,1,1.0,1,0.4,1,1.0,1.4349291999824345,3.0,0.2822265001013875,1,0,0,0,0,0,1,0,0,0,0,0,0,0,0,0,0,0,0,0,4300.904011461318,0.6545878502772005,0.2618351401108802,1.0,4.0,0,70,0,0
139,11,16426,1,cdt,1,/content/G/Shareddrives/LC-Aging/Young Adult - Behavioral + Pupillometry Study/Data Collection/metacog YA/subject11_CD_session1_run1_8_22_9.mat,140.0,5,1,1,0.0,1,0.4,0,2.0,1.7642584000714123,3.0,0.1764279999770224,0,1,0,0,0,0,0,0,0,0,1,0,0,0,0,0,0,0,0,0,4232.481375358167,0.6441740800192022,0.2576696320076809,1.0,4.0,0,70,0,0
140,11,16426,1,cdt,1,/content/G/Shareddrives/LC-Aging/Young Adult - Behavioral + Pupillometry Study/Data Collection/metacog YA/subject11_CD_session1_run1_8_22_9.mat,141.0,45,3,1,1.0,1,0.4,1,1.0,1.5170588998589665,4.0,0.10583560005761683,1,0,0,0,0,0,0,1,0,0,0,0,0,0,0,0,0,0,0,0,4488.691977077364,0.6831687533601247,0.2732675013440499,1.0,4.0,2,70,0,1
141,11,16426,1,cdt,1,/content/G/Shareddrives/LC-Aging/Young Adult - Behavioral + Pupillometry Study/Data Collection/metacog YA/subject11_CD_session1_run1_8_22_9.mat,142.0,45,3,1,1.0,1,0.4,1,1.0,1.3407523999921978,4.0,0.15281020011752844,1,0,0,0,0,0,0,1,0,0,0,0,0,0,0,0,0,0,0,0,4355.689111747851,0.662926018468868,0.2651704073875472,1.0,4.0,2,70,0,1
142,11,16426,1,cdt,1,/content/G/Shareddrives/LC-Aging/Young Adult - Behavioral + Pupillometry Study/Data Collection/metacog YA/subject11_CD_session1_run1_8_22_9.mat,143.0,90,4,1,1.0,0,0.05,1,1.0,1.1173213999718428,4.0,0.21170149999670684,1,0,0,0,0,0,0,1,0,0,0,0,0,0,0,0,0,0,0,0,1195.06446991404,1.455088846845294,0.0727544423422647,1.0,4.0,2,70,0,1
143,11,16426,1,cdt,1,/content/G/Shareddrives/LC-Aging/Young Adult - Behavioral + Pupillometry Study/Data Collection/metacog YA/subject11_CD_session1_run1_8_22_9.mat,144.0,5,1,1,0.0,0,0.05,0,2.0,1.7287663000170141,3.0,0.09128460008651018,0,1,0,0,0,0,0,0,0,0,1,0,0,0,0,0,0,0,0,0,1162.896848137536,1.415922133370919,0.07079610666854597,1.0,4.0,0,70,0,0
144,11,16426,1,cdt,1,/content/G/Shareddrives/LC-Aging/Young Adult - Behavioral + Pupillometry Study/Data Collection/metacog YA/subject11_CD_session1_run1_8_22_9.mat,145.0,90,4,1,1.0,1,0.4,1,1.0,1.2818974999245256,4.0,0.27041000011377037,1,0,0,0,0,0,0,1,0,0,0,0,0,0,0,0,0,0,0,0,4367.686246418338,0.6647519551957777,0.2659007820783111,1.0,4.0,2,70,0,1
145,11,16426,1,cdt,1,/content/G/Shareddrives/LC-Aging/Young Adult - Behavioral + Pupillometry Study/Data Collection/metacog YA/subject11_CD_session1_run1_8_22_9.mat,146.0,90,4,1,1.0,0,0.05,1,1.0,1.0232895999215543,4.0,0.24696869985200465,1,0,0,0,0,0,0,1,0,0,0,0,0,0,0,0,0,0,0,0,1269.3338108882522,1.5455178508319154,0.07727589254159577,1.0,4.0,2,70,0,1
146,11,16426,1,cdt,1,/content/G/Shareddrives/LC-Aging/Young Adult - Behavioral + Pupillometry Study/Data Collection/metacog YA/subject11_CD_session1_run1_8_22_9.mat,147.0,5,1,1,0.0,0,0.05,0,2.0,1.6347742998041213,3.0,0.14109559985809028,0,1,0,0,0,0,0,0,0,0,1,0,0,0,0,0,0,0,0,0,1290.849570200573,1.5717150495562802,0.07858575247781402,1.0,4.0,0,70,0,0
147,11,16426,1,cdt,1,/content/G/Shareddrives/LC-Aging/Young Adult - Behavioral + Pupillometry Study/Data Collection/metacog YA/subject11_CD_session1_run1_8_22_9.mat,148.0,90,4,1,1.0,1,0.4,1,1.0,2.2110999000724405,3.0,0.058885399950668216,1,0,0,0,0,0,1,0,0,0,0,0,0,0,0,0,0,0,0,0,4354.7277936962755,0.6627797080385175,0.265111883215407,1.0,4.0,0,70,0,0
148,11,16426,1,cdt,1,/content/G/Shareddrives/LC-Aging/Young Adult - Behavioral + Pupillometry Study/Data Collection/metacog YA/subject11_CD_session1_run1_8_22_9.mat,149.0,5,1,1,0.0,1,0.4,0,2.0,1.6937071001157165,3.0,0.2234308000188321,0,1,0,0,0,0,0,0,0,0,1,0,0,0,0,0,0,0,0,0,4543.004297994269,0.6914349656024396,0.27657398624097584,1.0,4.0,0,70,0,0
149,11,16426,1,cdt,1,/content/G/Shareddrives/LC-Aging/Young Adult - Behavioral + Pupillometry Study/Data Collection/metacog YA/subject11_CD_session1_run1_8_22_9.mat,150.0,45,3,1,1.0,0,0.05,1,1.0,2.5051397997885942,4.0,1.1290198999922723,1,0,0,0,0,0,0,1,0,0,0,0,0,0,0,0,0,0,0,0,1252.5042979942693,1.5250265408428945,0.07625132704214473,1.0,4.0,2,70,0,1
150,11,16426,1,cdt,1,/content/G/Shareddrives/LC-Aging/Young Adult - Behavioral + Pupillometry Study/Data Collection/metacog YA/subject11_CD_session1_run1_8_22_9.mat,151.0,90,4,1,1.0,1,0.4,1,1.0,1.0701833998318762,4.0,0.376236799871549,1,0,0,0,0,0,0,1,0,0,0,0,0,0,0,0,0,0,0,0,3608.3882521489973,0.549188520051899,0.2196754080207596,0.9207317073170732,4.0,2,70,0,1
151,11,16426,1,cdt,1,/content/G/Shareddrives/LC-Aging/Young Adult - Behavioral + Pupillometry Study/Data Collection/metacog YA/subject11_CD_session1_run1_8_22_9.mat,152.0,90,4,1,1.0,0,0.05,1,1.0,1.3524825000204146,4.0,0.11758479988202453,1,0,0,0,0,0,0,1,0,0,0,0,0,0,0,0,0,0,0,0,1362.5816618911174,1.659054744784022,0.0829527372392011,1.0,4.0,2,70,0,1
152,11,16426,1,cdt,1,/content/G/Shareddrives/LC-Aging/Young Adult - Behavioral + Pupillometry Study/Data Collection/metacog YA/subject11_CD_session1_run1_8_22_9.mat,153.0,90,4,1,1.0,0,0.05,1,1.0,0.9998683000449091,4.0,0.2939360002055764,1,0,0,0,0,0,0,1,0,0,0,0,0,0,0,0,0,0,0,0,1402.3796561604584,1.7075120615614978,0.0853756030780749,1.0,4.0,2,70,0,1
153,11,16426,1,cdt,1,/content/G/Shareddrives/LC-Aging/Young Adult - Behavioral + Pupillometry Study/Data Collection/metacog YA/subject11_CD_session1_run1_8_22_9.mat,154.0,45,3,1,1.0,0,0.05,1,1.0,1.3758843999821693,4.0,0.27050339989364147,1,0,0,0,0,0,0,1,0,0,0,0,0,0,0,0,0,0,0,0,1181.6103151862465,1.4387073118059739,0.0719353655902987,1.0,4.0,2,70,0,1
154,11,16426,1,cdt,1,/content/G/Shareddrives/LC-Aging/Young Adult - Behavioral + Pupillometry Study/Data Collection/metacog YA/subject11_CD_session1_run1_8_22_9.mat,155.0,90,4,1,1.0,0,0.05,1,1.0,1.4703633999451995,4.0,0.24685340002179146,1,0,0,0,0,0,0,1,0,0,0,0,0,0,0,0,0,0,0,0,1205.4971346704872,1.4677914704377049,0.07338957352188526,1.0,4.0,2,70,0,1
155,11,16426,1,cdt,1,/content/G/Shareddrives/LC-Aging/Young Adult - Behavioral + Pupillometry Study/Data Collection/metacog YA/subject11_CD_session1_run1_8_22_9.mat,156.0,5,1,1,0.0,1,0.4,0,2.0,1.5994643999729306,4.0,0.1880049998871982,0,1,0,0,0,0,0,0,0,0,0,1,0,0,0,0,0,0,0,0,3539.926934097421,0.5387688624889536,0.21550754499558145,0.8957055214723927,4.0,2,70,0,1
156,11,16426,1,cdt,1,/content/G/Shareddrives/LC-Aging/Young Adult - Behavioral + Pupillometry Study/Data Collection/metacog YA/subject11_CD_session1_run1_8_22_9.mat,157.0,90,4,1,1.0,1,0.4,1,1.0,1.646712999790907,4.0,0.24729510000906885,1,0,0,0,0,0,0,1,0,0,0,0,0,0,0,0,0,0,0,0,4088.9871060171918,0.6223345771973079,0.24893383087892315,1.0,4.0,2,70,0,1
157,11,16426,1,cdt,1,/content/G/Shareddrives/LC-Aging/Young Adult - Behavioral + Pupillometry Study/Data Collection/metacog YA/subject11_CD_session1_run1_8_22_9.mat,158.0,5,1,1,1.0,1,0.4,1,1.0,2.693311399780214,1.0,0.0351819999050349,1,0,0,0,1,0,0,0,0,0,0,0,0,0,0,0,0,0,0,0,4048.4656160458453,0.6161672981927805,0.24646691927711223,1.0,4.0,0,70,0,0
158,11,16426,1,cdt,1,/content/G/Shareddrives/LC-Aging/Young Adult - Behavioral + Pupillometry Study/Data Collection/metacog YA/subject11_CD_session1_run1_8_22_9.mat,159.0,90,4,1,1.0,0,0.05,1,1.0,1.6582795998547226,4.0,0.0940221999771893,1,0,0,0,0,0,0,1,0,0,0,0,0,0,0,0,0,0,0,0,1229.4942693409741,1.497009946841561,0.07485049734207806,1.0,4.0,2,70,0,1
159,11,16426,1,cdt,1,/content/G/Shareddrives/LC-Aging/Young Adult - Behavioral + Pupillometry Study/Data Collection/metacog YA/subject11_CD_session1_run1_8_22_9.mat,160.0,5,1,1,0.0,1,0.4,0,2.0,1.728956599952653,4.0,0.19980780011974275,0,1,0,0,0,0,0,0,0,0,0,1,0,0,0,0,0,0,0,0,4020.333810888252,0.6118857011579587,0.2447542804631835,1.0,4.0,2,70,0,1
160,11,16426,1,cdt,1,/content/G/Shareddrives/LC-Aging/Young Adult - Behavioral + Pupillometry Study/Data Collection/metacog YA/subject11_CD_session1_run1_8_22_9.mat,161.0,5,1,1,0.0,1,0.4,0,2.0,2.175844999961555,2.0,0.07059550005942583,0,1,0,0,0,0,0,0,0,1,0,0,0,0,0,0,0,0,0,0,3558.7779369627506,0.5416379424331472,0.2166551769732589,0.9938271604938271,4.0,0,70,0,0
161,11,16426,1,cdt,1,/content/G/Shareddrives/LC-Aging/Young Adult - Behavioral + Pupillometry Study/Data Collection/metacog YA/subject11_CD_session1_run1_8_22_9.mat,162.0,20,2,1,1.0,0,0.05,1,1.0,1.623015700140968,4.0,0.3235549000091851,1,0,0,0,0,0,0,1,0,0,0,0,0,0,0,0,0,0,0,0,1138.090257879656,1.3857180785092609,0.06928590392546305,1.0,4.0,2,70,0,1
162,11,16426,1,cdt,1,/content/G/Shareddrives/LC-Aging/Young Adult - Behavioral + Pupillometry Study/Data Collection/metacog YA/subject11_CD_session1_run1_8_22_9.mat,163.0,0,0,0,,1,0.4,1,,3.0108278000261635,1.0,0.011950499843806028,0,0,0,1,0,0,0,0,0,0,0,0,0,0,0,0,1,0,0,0,4149.462750716332,0.6315388333611853,0.2526155333444741,1.0,4.0,0,70,0,0
163,11,16426,1,cdt,1,/content/G/Shareddrives/LC-Aging/Young Adult - Behavioral + Pupillometry Study/Data Collection/metacog YA/subject11_CD_session1_run1_8_22_9.mat,164.0,90,4,1,1.0,1,0.4,1,1.0,1.1292124998290092,4.0,0.09415389993228018,1,0,0,0,0,0,0,1,0,0,0,0,0,0,0,0,0,0,0,0,4222.93553008596,0.64272122398727,0.25708848959490804,1.0,4.0,2,70,0,1
164,11,16426,1,cdt,1,/content/G/Shareddrives/LC-Aging/Young Adult - Behavioral + Pupillometry Study/Data Collection/metacog YA/subject11_CD_session1_run1_8_22_9.mat,165.0,0,0,0,0.0,1,0.4,1,2.0,1.740668499842286,3.0,0.04704539990052581,0,0,0,1,0,0,0,0,0,0,0,0,0,0,0,0,0,0,1,0,4465.116045845272,0.6795805500190661,0.27183222000762647,1.0,4.0,0,70,0,0
165,11,16426,1,cdt,1,/content/G/Shareddrives/LC-Aging/Young Adult - Behavioral + Pupillometry Study/Data Collection/metacog YA/subject11_CD_session1_run1_8_22_9.mat,166.0,20,2,1,0.0,1,0.4,0,2.0,2.446336100110784,2.0,0.9525775001384318,0,1,0,0,0,0,0,0,0,1,0,0,0,0,0,0,0,0,0,0,4514.915472779369,0.6871599100175589,0.27486396400702356,1.0,4.0,0,70,0,0
166,11,16426,1,cdt,1,/content/G/Shareddrives/LC-Aging/Young Adult - Behavioral + Pupillometry Study/Data Collection/metacog YA/subject11_CD_session1_run1_8_22_9.mat,167.0,5,1,1,0.0,1,0.4,0,2.0,1.670079399831593,3.0,0.11755570000968874,0,1,0,0,0,0,0,0,0,0,1,0,0,0,0,0,0,0,0,0,4467.954154727794,0.6800125037635142,0.2720050015054057,1.0,4.0,0,70,0,0
167,11,16426,1,cdt,1,/content/G/Shareddrives/LC-Aging/Young Adult - Behavioral + Pupillometry Study/Data Collection/metacog YA/subject11_CD_session1_run1_8_22_9.mat,168.0,20,2,1,0.0,0,0.05,0,2.0,1.634778199950233,4.0,0.16455610003322363,0,1,0,0,0,0,0,0,0,0,0,1,0,0,0,0,0,0,0,0,1567.785100286533,1.9089067335766867,0.09544533667883434,0.9512195121951219,4.0,2,70,0,1
168,11,16426,1,cdt,1,/content/G/Shareddrives/LC-Aging/Young Adult - Behavioral + Pupillometry Study/Data Collection/metacog YA/subject11_CD_session1_run1_8_22_9.mat,169.0,90,4,1,1.0,1,0.4,1,1.0,1.5056898000184447,4.0,0.23521549999713898,1,0,0,0,0,0,0,1,0,0,0,0,0,0,0,0,0,0,0,0,3890.3610315186247,0.5921041384875539,0.23684165539502158,1.0,4.0,2,70,0,1
169,11,16426,1,cdt,1,/content/G/Shareddrives/LC-Aging/Young Adult - Behavioral + Pupillometry Study/Data Collection/metacog YA/subject11_CD_session1_run1_8_22_9.mat,170.0,0,0,0,0.0,0,0.05,1,2.0,2.3522203001193702,2.0,0.12934660003520548,0,0,0,1,0,0,0,0,0,0,0,0,0,0,0,0,0,1,0,0,1214.759312320917,1.4790689301362678,0.0739534465068134,1.0,4.0,0,70,0,0
170,11,16426,1,cdt,1,/content/G/Shareddrives/LC-Aging/Young Adult - Behavioral + Pupillometry Study/Data Collection/metacog YA/subject11_CD_session1_run1_8_22_9.mat,171.0,20,2,1,1.0,1,0.4,1,1.0,2.399314200039953,3.0,0.10584340011700988,1,0,0,0,0,0,1,0,0,0,0,0,0,0,0,0,0,0,0,0,4027.3180515759313,0.6129486867733975,0.24517947470935902,1.0,4.0,0,70,0,0
171,11,16426,1,cdt,1,/content/G/Shareddrives/LC-Aging/Young Adult - Behavioral + Pupillometry Study/Data Collection/metacog YA/subject11_CD_session1_run1_8_22_9.mat,172.0,5,1,1,0.0,0,0.05,0,2.0,1.399559099925682,4.0,0.1293858999852091,0,1,0,0,0,0,0,0,0,0,0,1,0,0,0,0,0,0,0,0,1218.8252148997135,1.4840194994517393,0.07420097497258697,1.0,4.0,2,70,0,1
172,11,16426,1,cdt,1,/content/G/Shareddrives/LC-Aging/Young Adult - Behavioral + Pupillometry Study/Data Collection/metacog YA/subject11_CD_session1_run1_8_22_9.mat,173.0,5,1,1,0.0,1,0.4,0,2.0,1.587822999805212,3.0,0.011945300037041306,0,1,0,0,0,0,0,0,0,0,1,0,0,0,0,0,0,0,0,0,4104.150429799427,0.6246424007365498,0.24985696029461993,1.0,4.0,0,70,0,0
173,11,16426,1,cdt,1,/content/G/Shareddrives/LC-Aging/Young Adult - Behavioral + Pupillometry Study/Data Collection/metacog YA/subject11_CD_session1_run1_8_22_9.mat,174.0,20,2,1,0.0,0,0.05,0,2.0,1.8345468000043184,3.0,0.08220540010370314,0,1,0,0,0,0,0,0,0,0,1,0,0,0,0,0,0,0,0,0,1368.0358166189112,1.6656956247642896,0.08328478123821449,1.0,4.0,0,70,0,0
174,11,16426,1,cdt,1,/content/G/Shareddrives/LC-Aging/Young Adult - Behavioral + Pupillometry Study/Data Collection/metacog YA/subject11_CD_session1_run1_8_22_9.mat,175.0,0,0,0,0.0,0,0.05,1,2.0,1.5642770000267774,4.0,0.29414879996329546,0,0,0,1,0,0,0,0,0,0,0,0,0,0,0,0,0,0,0,1,1089.8137535816618,1.3269374815313062,0.06634687407656531,1.0,4.0,2,70,0,1
175,11,16426,1,cdt,1,/content/G/Shareddrives/LC-Aging/Young Adult - Behavioral + Pupillometry Study/Data Collection/metacog YA/subject11_CD_session1_run1_8_22_9.mat,176.0,45,3,1,1.0,0,0.05,1,1.0,1.3173821999225765,4.0,0.12934009986929595,1,0,0,0,0,0,0,1,0,0,0,0,0,0,0,0,0,0,0,0,922.3853868194842,1.1230797355649387,0.056153986778246935,1.0,4.0,2,70,0,1
176,11,16426,1,cdt,1,/content/G/Shareddrives/LC-Aging/Young Adult - Behavioral + Pupillometry Study/Data Collection/metacog YA/subject11_CD_session1_run1_8_22_9.mat,177.0,20,2,1,1.0,0,0.05,1,1.0,1.1879989001899958,4.0,0.08231489988975227,1,0,0,0,0,0,0,1,0,0,0,0,0,0,0,0,0,0,0,0,973.4011461318051,1.1851955998195605,0.059259779990978034,1.0,4.0,2,70,0,1
177,11,16426,1,cdt,1,/content/G/Shareddrives/LC-Aging/Young Adult - Behavioral + Pupillometry Study/Data Collection/metacog YA/subject11_CD_session1_run1_8_22_9.mat,178.0,45,3,1,1.0,0,0.05,1,1.0,1.9879147000610828,4.0,0.45868269982747734,1,0,0,0,0,0,0,1,0,0,0,0,0,0,0,0,0,0,0,0,1027.474212034384,1.2510339851873662,0.06255169925936832,1.0,4.0,2,70,0,1
178,11,16426,1,cdt,1,/content/G/Shareddrives/LC-Aging/Young Adult - Behavioral + Pupillometry Study/Data Collection/metacog YA/subject11_CD_session1_run1_8_22_9.mat,179.0,20,2,1,0.0,0,0.05,0,2.0,1.8111346999648958,4.0,0.5410336998756975,0,1,0,0,0,0,0,0,0,0,0,1,0,0,0,0,0,0,0,0,1015.8065902578796,1.2368277003018135,0.061841385015090684,1.0,4.0,2,70,0,1
179,11,16426,1,cdt,1,/content/G/Shareddrives/LC-Aging/Young Adult - Behavioral + Pupillometry Study/Data Collection/metacog YA/subject11_CD_session1_run1_8_22_9.mat,180.0,20,2,1,0.0,1,0.4,0,2.0,1.8582874999847263,4.0,0.7762289000675082,0,1,0,0,0,0,0,0,0,0,0,1,0,0,0,0,0,0,0,0,4221.657593123209,0.6425267248756862,0.25701068995027454,1.0,4.0,2,70,0,1
0,12,21555,1,cdt,1,/content/G/Shareddrives/LC-Aging/Young Adult - Behavioral + Pupillometry Study/Data Collection/metacog YA/subject12_CD_session1_run1_8_31_10.mat,1.0,5,1,1,0.0,1,0.4,0,2.0,1.5524771000000328,3.0,1.1760553999999956,0,1,0,0,0,0,0,0,0,0,1,0,0,0,0,0,0,0,0,0,5089.232091690545,0.5902612029332573,0.23610448117330293,1.0,3.0,2,24,63,0
1,12,21555,1,cdt,1,/content/G/Shareddrives/LC-Aging/Young Adult - Behavioral + Pupillometry Study/Data Collection/metacog YA/subject12_CD_session1_run1_8_31_10.mat,2.0,0,0,0,0.0,0,0.05,1,2.0,1.646624700000018,4.0,0.3763064999999983,0,0,0,1,0,0,0,0,0,0,0,0,0,0,0,0,0,0,0,1,1046.3094555873924,0.9708276089885339,0.0485413804494267,1.0,3.0,1,24,63,1
2,12,21555,1,cdt,1,/content/G/Shareddrives/LC-Aging/Young Adult - Behavioral + Pupillometry Study/Data Collection/metacog YA/subject12_CD_session1_run1_8_31_10.mat,3.0,45,3,1,0.0,1,0.4,0,2.0,1.2350154999999745,3.0,0.7174815999999851,0,1,0,0,0,0,0,0,0,0,1,0,0,0,0,0,0,0,0,0,5114.332378223496,0.5931723936700877,0.23726895746803506,1.0,3.0,2,24,63,0
3,12,21555,1,cdt,1,/content/G/Shareddrives/LC-Aging/Young Adult - Behavioral + Pupillometry Study/Data Collection/metacog YA/subject12_CD_session1_run1_8_31_10.mat,4.0,5,1,1,0.0,1,0.4,0,2.0,2.610959600000001,2.0,0.9055776000000151,0,1,0,0,0,0,0,0,0,1,0,0,0,0,0,0,0,0,0,0,5063.638968481376,0.5872928518303614,0.23491714073214454,1.0,3.0,0,24,63,0
4,12,21555,1,cdt,1,/content/G/Shareddrives/LC-Aging/Young Adult - Behavioral + Pupillometry Study/Data Collection/metacog YA/subject12_CD_session1_run1_8_31_10.mat,5.0,45,3,1,1.0,1,0.4,1,1.0,1.2936979000000406,3.0,1.0821544000000358,1,0,0,0,0,0,1,0,0,0,0,0,0,0,0,0,0,0,0,0,5144.647564469914,0.5966884208385426,0.23867536833541703,1.0,3.0,2,24,63,0
5,12,21555,1,cdt,1,/content/G/Shareddrives/LC-Aging/Young Adult - Behavioral + Pupillometry Study/Data Collection/metacog YA/subject12_CD_session1_run1_8_31_10.mat,6.0,20,2,1,0.0,1,0.4,0,2.0,1.2938131000000226,3.0,0.7056694999999991,0,1,0,0,0,0,0,0,0,0,1,0,0,0,0,0,0,0,0,0,5010.630372492837,0.5811447892012105,0.23245791568048418,1.0,3.0,2,24,63,0
6,12,21555,1,cdt,1,/content/G/Shareddrives/LC-Aging/Young Adult - Behavioral + Pupillometry Study/Data Collection/metacog YA/subject12_CD_session1_run1_8_31_10.mat,7.0,45,3,1,1.0,1,0.4,1,1.0,1.7289508999999725,4.0,0.27035209999996823,1,0,0,0,0,0,0,1,0,0,0,0,0,0,0,0,0,0,0,0,5393.2234957020055,0.6255188466367438,0.2502075386546975,1.0,3.0,1,24,63,1
7,12,21555,1,cdt,1,/content/G/Shareddrives/LC-Aging/Young Adult - Behavioral + Pupillometry Study/Data Collection/metacog YA/subject12_CD_session1_run1_8_31_10.mat,8.0,5,1,1,0.0,1,0.4,0,2.0,1.5642454000000043,3.0,0.2938165999999569,0,1,0,0,0,0,0,0,0,0,1,0,0,0,0,0,0,0,0,0,5533.16905444126,0.6417500643054118,0.2567000257221647,1.0,3.0,2,24,63,0
8,12,21555,1,cdt,1,/content/G/Shareddrives/LC-Aging/Young Adult - Behavioral + Pupillometry Study/Data Collection/metacog YA/subject12_CD_session1_run1_8_31_10.mat,9.0,45,3,1,1.0,0,0.05,1,1.0,1.046717400000034,4.0,0.21168839999995726,1,0,0,0,0,0,0,1,0,0,0,0,0,0,0,0,0,0,0,0,1052.8309455587394,0.9768786319264573,0.048843931596322866,1.0,3.0,1,24,63,1
9,12,21555,1,cdt,1,/content/G/Shareddrives/LC-Aging/Young Adult - Behavioral + Pupillometry Study/Data Collection/metacog YA/subject12_CD_session1_run1_8_31_10.mat,10.0,45,3,1,1.0,0,0.05,1,1.0,1.1290311000000202,4.0,0.19991300000003775,1,0,0,0,0,0,0,1,0,0,0,0,0,0,0,0,0,0,0,0,988.2521489971347,0.916958616559624,0.04584793082798119,1.0,3.0,1,24,63,1
10,12,21555,1,cdt,1,/content/G/Shareddrives/LC-Aging/Young Adult - Behavioral + Pupillometry Study/Data Collection/metacog YA/subject12_CD_session1_run1_8_31_10.mat,11.0,5,1,1,0.0,1,0.4,0,2.0,2.1640776000000415,3.0,0.22339769999996406,0,1,0,0,0,0,0,0,0,0,1,0,0,0,0,0,0,0,0,0,4919.839541547278,0.5706146533921687,0.22824586135686745,1.0,3.0,2,24,63,0
11,12,21555,1,cdt,1,/content/G/Shareddrives/LC-Aging/Young Adult - Behavioral + Pupillometry Study/Data Collection/metacog YA/subject12_CD_session1_run1_8_31_10.mat,12.0,20,2,1,1.0,0,0.05,1,1.0,1.4230782999999292,1.0,0.5526214000000209,1,0,0,0,1,0,0,0,0,0,0,0,0,0,0,0,0,0,0,0,1124.3180515759311,1.0432085841576721,0.05216042920788361,1.0,3.0,0,24,63,0
12,12,21555,1,cdt,1,/content/G/Shareddrives/LC-Aging/Young Adult - Behavioral + Pupillometry Study/Data Collection/metacog YA/subject12_CD_session1_run1_8_31_10.mat,13.0,5,1,1,0.0,1,0.4,0,2.0,1.1996160999999574,3.0,0.27043620000006285,0,1,0,0,0,0,0,0,0,0,1,0,0,0,0,0,0,0,0,0,5384.696275071633,0.6245298393727248,0.24981193574908991,1.0,3.0,2,24,63,0
13,12,21555,1,cdt,1,/content/G/Shareddrives/LC-Aging/Young Adult - Behavioral + Pupillometry Study/Data Collection/metacog YA/subject12_CD_session1_run1_8_31_10.mat,14.0,20,2,1,1.0,0,0.05,1,1.0,1.964145500000086,3.0,0.6585652999999638,1,0,0,0,0,0,1,0,0,0,0,0,0,0,0,0,0,0,0,0,1065.8796561604584,0.9889859950456584,0.04944929975228292,1.0,3.0,2,24,63,0
14,12,21555,1,cdt,1,/content/G/Shareddrives/LC-Aging/Young Adult - Behavioral + Pupillometry Study/Data Collection/metacog YA/subject12_CD_session1_run1_8_31_10.mat,15.0,20,2,1,0.0,1,0.4,0,2.0,1.446603600000003,3.0,0.058839600000055725,0,1,0,0,0,0,0,0,0,0,1,0,0,0,0,0,0,0,0,0,5335.037249283668,0.6187702678361944,0.24750810713447774,1.0,3.0,2,24,63,0
15,12,21555,1,cdt,1,/content/G/Shareddrives/LC-Aging/Young Adult - Behavioral + Pupillometry Study/Data Collection/metacog YA/subject12_CD_session1_run1_8_31_10.mat,16.0,90,4,1,1.0,1,0.4,1,1.0,1.2584603000000243,4.0,0.6350153000000773,1,0,0,0,0,0,0,1,0,0,0,0,0,0,0,0,0,0,0,0,5391.489971346705,0.6253177883723852,0.25012711534895404,1.0,3.0,1,24,63,1
16,12,21555,1,cdt,1,/content/G/Shareddrives/LC-Aging/Young Adult - Behavioral + Pupillometry Study/Data Collection/metacog YA/subject12_CD_session1_run1_8_31_10.mat,17.0,0,0,0,0.0,0,0.05,1,2.0,1.352452400000061,3.0,0.08237259999998514,0,0,0,1,0,0,0,0,0,0,0,0,0,0,0,0,0,0,1,0,1252.111747851003,1.161783110972863,0.05808915554864314,1.0,3.0,2,24,63,0
17,12,21555,1,cdt,1,/content/G/Shareddrives/LC-Aging/Young Adult - Behavioral + Pupillometry Study/Data Collection/metacog YA/subject12_CD_session1_run1_8_31_10.mat,18.0,0,0,0,1.0,0,0.05,0,1.0,2.1288399000000027,3.0,0.293974100000014,0,0,1,0,0,0,0,0,0,0,0,0,0,0,1,0,0,0,0,0,967.3381088825215,0.8975533369357658,0.04487766684678829,1.0,3.0,2,24,63,0
18,12,21555,1,cdt,1,/content/G/Shareddrives/LC-Aging/Young Adult - Behavioral + Pupillometry Study/Data Collection/metacog YA/subject12_CD_session1_run1_8_31_10.mat,19.0,20,2,1,1.0,1,0.4,1,1.0,1.3172636000000466,3.0,0.5058147999999392,1,0,0,0,0,0,1,0,0,0,0,0,0,0,0,0,0,0,0,0,5180.962750716332,0.6009003422310755,0.24036013689243016,1.0,3.0,2,24,63,0
19,12,21555,1,cdt,1,/content/G/Shareddrives/LC-Aging/Young Adult - Behavioral + Pupillometry Study/Data Collection/metacog YA/subject12_CD_session1_run1_8_31_10.mat,20.0,20,2,1,0.0,1,0.4,0,2.0,2.2464410000000044,3.0,0.31781499999999596,0,1,0,0,0,0,0,0,0,0,1,0,0,0,0,0,0,0,0,0,5230.134670487106,0.6066034180569596,0.24264136722278384,1.0,3.0,2,24,63,0
20,12,21555,1,cdt,1,/content/G/Shareddrives/LC-Aging/Young Adult - Behavioral + Pupillometry Study/Data Collection/metacog YA/subject12_CD_session1_run1_8_31_10.mat,21.0,0,0,0,0.0,1,0.4,1,2.0,1.5642873000000463,3.0,0.14113369999995484,0,0,0,1,0,0,0,0,0,0,0,0,0,0,0,0,0,0,1,0,5194.1719197707735,0.6024323729727179,0.24097294918908715,1.0,3.0,2,24,63,0
21,12,21555,1,cdt,1,/content/G/Shareddrives/LC-Aging/Young Adult - Behavioral + Pupillometry Study/Data Collection/metacog YA/subject12_CD_session1_run1_8_31_10.mat,22.0,90,4,1,1.0,1,0.4,1,1.0,0.9762753999999632,4.0,0.023541199999954188,1,0,0,0,0,0,0,1,0,0,0,0,0,0,0,0,0,0,0,0,5364.45558739255,0.6221822764315182,0.2488729105726073,1.0,3.0,1,24,63,1
22,12,21555,1,cdt,1,/content/G/Shareddrives/LC-Aging/Young Adult - Behavioral + Pupillometry Study/Data Collection/metacog YA/subject12_CD_session1_run1_8_31_10.mat,23.0,20,2,1,1.0,0,0.05,1,1.0,1.4465816000000586,4.0,0.3055740000000924,1,0,0,0,0,0,0,1,0,0,0,0,0,0,0,0,0,0,0,0,914.6934097421204,0.8487064808555976,0.04243532404277988,1.0,3.0,1,24,63,1
23,12,21555,1,cdt,1,/content/G/Shareddrives/LC-Aging/Young Adult - Behavioral + Pupillometry Study/Data Collection/metacog YA/subject12_CD_session1_run1_8_31_10.mat,24.0,0,0,0,0.0,1,0.4,1,2.0,1.2584584999999606,3.0,0.14114089999998214,0,0,0,1,0,0,0,0,0,0,0,0,0,0,0,0,0,0,1,0,5096.598853868195,0.5911156174748544,0.23644624698994177,1.0,3.0,2,24,63,0
24,12,21555,1,cdt,1,/content/G/Shareddrives/LC-Aging/Young Adult - Behavioral + Pupillometry Study/Data Collection/metacog YA/subject12_CD_session1_run1_8_31_10.mat,25.0,0,0,0,0.0,0,0.05,1,2.0,1.03500269999995,3.0,0.058742700000038894,0,0,0,1,0,0,0,0,0,0,0,0,0,0,0,0,0,0,1,0,1082.4527220630373,1.0043634628281488,0.05021817314140744,1.0,3.0,2,24,63,0
25,12,21555,1,cdt,1,/content/G/Shareddrives/LC-Aging/Young Adult - Behavioral + Pupillometry Study/Data Collection/metacog YA/subject12_CD_session1_run1_8_31_10.mat,26.0,20,2,1,0.0,1,0.4,0,2.0,1.2230121000000054,3.0,0.03521860000000743,0,1,0,0,0,0,0,0,0,0,1,0,0,0,0,0,0,0,0,0,5073.991404011461,0.5884935518454489,0.23539742073817957,1.0,3.0,2,24,63,0
26,12,21555,1,cdt,1,/content/G/Shareddrives/LC-Aging/Young Adult - Behavioral + Pupillometry Study/Data Collection/metacog YA/subject12_CD_session1_run1_8_31_10.mat,27.0,0,0,0,0.0,0,0.05,1,2.0,1.3877489000000196,3.0,0.5410491000000093,0,0,0,1,0,0,0,0,0,0,0,0,0,0,0,0,0,0,1,0,869.1776504297994,0.8064742755089765,0.04032371377544883,1.0,3.0,2,24,63,0
27,12,21555,1,cdt,1,/content/G/Shareddrives/LC-Aging/Young Adult - Behavioral + Pupillometry Study/Data Collection/metacog YA/subject12_CD_session1_run1_8_31_10.mat,28.0,5,1,1,0.0,1,0.4,0,2.0,1.0585192999999435,4.0,0.17636059999995268,0,1,0,0,0,0,0,0,0,0,0,1,0,0,0,0,0,0,0,0,5194.5730659025785,0.6024788988520736,0.24099155954082943,1.0,3.0,1,24,63,1
28,12,21555,1,cdt,1,/content/G/Shareddrives/LC-Aging/Young Adult - Behavioral + Pupillometry Study/Data Collection/metacog YA/subject12_CD_session1_run1_8_31_10.mat,29.0,0,0,0,0.0,1,0.4,1,2.0,1.1172788999999739,4.0,0.42334310000001096,0,0,0,1,0,0,0,0,0,0,0,0,0,0,0,0,0,0,0,1,5690.481375358167,0.6599955202224735,0.2639982080889894,1.0,3.0,1,24,63,1
29,12,21555,1,cdt,1,/content/G/Shareddrives/LC-Aging/Young Adult - Behavioral + Pupillometry Study/Data Collection/metacog YA/subject12_CD_session1_run1_8_31_10.mat,30.0,90,4,1,1.0,0,0.05,1,1.0,1.0232419000000164,4.0,0.04701390000002448,1,0,0,0,0,0,0,1,0,0,0,0,0,0,0,0,0,0,0,0,942.5988538681949,0.8745987973724842,0.04372993986862421,1.0,3.0,1,24,63,1
30,12,21555,1,cdt,1,/content/G/Shareddrives/LC-Aging/Young Adult - Behavioral + Pupillometry Study/Data Collection/metacog YA/subject12_CD_session1_run1_8_31_10.mat,31.0,5,1,1,0.0,1,0.4,0,2.0,1.4230896000000257,3.0,0.5527264000000969,0,1,0,0,0,0,0,0,0,0,1,0,0,0,0,0,0,0,0,0,5075.799426934097,0.5887032506302594,0.2354813002521038,1.0,3.0,2,24,63,0
31,12,21555,1,cdt,1,/content/G/Shareddrives/LC-Aging/Young Adult - Behavioral + Pupillometry Study/Data Collection/metacog YA/subject12_CD_session1_run1_8_31_10.mat,32.0,0,0,0,0.0,0,0.05,1,2.0,1.0110667000000149,4.0,0.2707123000000138,0,0,0,1,0,0,0,0,0,0,0,0,0,0,0,0,0,0,0,1,1191.3467048710602,1.105401721058743,0.055270086052937144,1.0,3.0,1,24,63,1
32,12,21555,1,cdt,1,/content/G/Shareddrives/LC-Aging/Young Adult - Behavioral + Pupillometry Study/Data Collection/metacog YA/subject12_CD_session1_run1_8_31_10.mat,33.0,90,4,1,1.0,1,0.4,1,1.0,1.2231214000000818,4.0,0.10604479999994965,1,0,0,0,0,0,0,1,0,0,0,0,0,0,0,0,0,0,0,0,4898.661891117478,0.5681584192898954,0.22726336771595818,1.0,3.0,1,24,63,1
33,12,21555,1,cdt,1,/content/G/Shareddrives/LC-Aging/Young Adult - Behavioral + Pupillometry Study/Data Collection/metacog YA/subject12_CD_session1_run1_8_31_10.mat,34.0,90,4,1,1.0,0,0.05,1,1.0,1.2938493000000335,4.0,0.07067489999997179,1,0,0,0,0,0,0,1,0,0,0,0,0,0,0,0,0,0,0,0,964.9083094555874,0.8952988257532706,0.044764941287663534,1.0,3.0,1,24,63,1
34,12,21555,1,cdt,1,/content/G/Shareddrives/LC-Aging/Young Adult - Behavioral + Pupillometry Study/Data Collection/metacog YA/subject12_CD_session1_run1_8_31_10.mat,35.0,5,1,1,0.0,0,0.05,0,2.0,0.9761221999999634,4.0,0.23535800000001927,0,1,0,0,0,0,0,0,0,0,0,1,0,0,0,0,0,0,0,0,877.4469914040114,0.8141470576701567,0.04070735288350784,1.0,3.0,1,24,63,1
35,12,21555,1,cdt,1,/content/G/Shareddrives/LC-Aging/Young Adult - Behavioral + Pupillometry Study/Data Collection/metacog YA/subject12_CD_session1_run1_8_31_10.mat,36.0,0,0,0,0.0,0,0.05,1,2.0,0.9997055999999702,4.0,0.07051869999997962,0,0,0,1,0,0,0,0,0,0,0,0,0,0,0,0,0,0,0,1,1072.7063037249284,0.9953201611922323,0.049766008059611615,1.0,3.0,1,24,63,1
36,12,21555,1,cdt,1,/content/G/Shareddrives/LC-Aging/Young Adult - Behavioral + Pupillometry Study/Data Collection/metacog YA/subject12_CD_session1_run1_8_31_10.mat,37.0,90,4,1,1.0,0,0.05,1,1.0,0.9877599000000146,4.0,0.27047730000003867,1,0,0,0,0,0,0,1,0,0,0,0,0,0,0,0,0,0,0,0,931.1805157593124,0.8640041899877637,0.04320020949938819,1.0,3.0,1,24,63,1
37,12,21555,1,cdt,1,/content/G/Shareddrives/LC-Aging/Young Adult - Behavioral + Pupillometry Study/Data Collection/metacog YA/subject12_CD_session1_run1_8_31_10.mat,38.0,45,3,1,1.0,1,0.4,1,1.0,1.8112098999999944,3.0,0.011789900000053422,1,0,0,0,0,0,1,0,0,0,0,0,0,0,0,0,0,0,0,0,5502.449856733524,0.6381871789298914,0.25527487157195655,1.0,3.0,2,24,63,0
38,12,21555,1,cdt,1,/content/G/Shareddrives/LC-Aging/Young Adult - Behavioral + Pupillometry Study/Data Collection/metacog YA/subject12_CD_session1_run1_8_31_10.mat,39.0,90,4,1,1.0,0,0.05,1,1.0,0.9055853999999499,4.0,0.2938494999999648,1,0,0,0,0,0,0,1,0,0,0,0,0,0,0,0,0,0,0,0,979.0859598853868,0.9084536858133954,0.04542268429066977,1.0,3.0,1,24,63,1
39,12,21555,1,cdt,1,/content/G/Shareddrives/LC-Aging/Young Adult - Behavioral + Pupillometry Study/Data Collection/metacog YA/subject12_CD_session1_run1_8_31_10.mat,40.0,90,4,1,1.0,1,0.4,1,1.0,1.6349007999999685,3.0,0.47038050000003295,1,0,0,0,0,0,1,0,0,0,0,0,0,0,0,0,0,0,0,0,5607.26217765043,0.6503435603862712,0.26013742415450847,1.0,3.0,2,24,63,0
40,12,21555,1,cdt,1,/content/G/Shareddrives/LC-Aging/Young Adult - Behavioral + Pupillometry Study/Data Collection/metacog YA/subject12_CD_session1_run1_8_31_10.mat,41.0,45,3,1,1.0,1,0.4,1,1.0,0.9173773999999639,4.0,0.1527789000000439,1,0,0,0,0,0,0,1,0,0,0,0,0,0,0,0,0,0,0,0,5696.114613180515,0.6606488764997118,0.2642595505998847,1.0,3.0,1,24,63,1
41,12,21555,1,cdt,1,/content/G/Shareddrives/LC-Aging/Young Adult - Behavioral + Pupillometry Study/Data Collection/metacog YA/subject12_CD_session1_run1_8_31_10.mat,42.0,0,0,0,0.0,1,0.4,1,2.0,1.5760437999999795,4.0,0.22344029999999293,0,0,0,1,0,0,0,0,0,0,0,0,0,0,0,0,0,0,0,1,5908.785100286533,0.6853149037678651,0.274125961507146,1.0,3.0,1,24,63,1
42,12,21555,1,cdt,1,/content/G/Shareddrives/LC-Aging/Young Adult - Behavioral + Pupillometry Study/Data Collection/metacog YA/subject12_CD_session1_run1_8_31_10.mat,43.0,5,1,1,0.0,0,0.05,0,2.0,2.1993982999999844,4.0,0.458719100000053,0,1,0,0,0,0,0,0,0,0,0,1,0,0,0,0,0,0,0,0,1419.0730659025787,1.3166996668082382,0.0658349833404119,1.0,3.0,1,24,63,1
43,12,21555,1,cdt,1,/content/G/Shareddrives/LC-Aging/Young Adult - Behavioral + Pupillometry Study/Data Collection/metacog YA/subject12_CD_session1_run1_8_31_10.mat,44.0,5,1,1,0.0,1,0.4,0,2.0,1.199616399999968,3.0,0.7174515000000383,0,1,0,0,0,0,0,0,0,0,1,0,0,0,0,0,0,0,0,0,5738.43553008596,0.665557356771742,0.2662229427086968,1.0,3.0,2,24,63,0
44,12,21555,1,cdt,1,/content/G/Shareddrives/LC-Aging/Young Adult - Behavioral + Pupillometry Study/Data Collection/metacog YA/subject12_CD_session1_run1_8_31_10.mat,45.0,5,1,1,0.0,0,0.05,0,2.0,1.0937604999999166,3.0,0.282363499999974,0,1,0,0,0,0,0,0,0,0,1,0,0,0,0,0,0,0,0,0,958.1031518624642,0.8889845992692779,0.04444922996346389,1.0,3.0,2,24,63,0
45,12,21555,1,cdt,1,/content/G/Shareddrives/LC-Aging/Young Adult - Behavioral + Pupillometry Study/Data Collection/metacog YA/subject12_CD_session1_run1_8_31_10.mat,46.0,5,1,1,0.0,0,0.05,0,2.0,1.0938436000000138,3.0,0.21167879999995876,0,1,0,0,0,0,0,0,0,0,1,0,0,0,0,0,0,0,0,0,996.8954154727794,0.9249783488497141,0.04624891744248571,1.0,3.0,2,24,63,0
46,12,21555,1,cdt,1,/content/G/Shareddrives/LC-Aging/Young Adult - Behavioral + Pupillometry Study/Data Collection/metacog YA/subject12_CD_session1_run1_8_31_10.mat,47.0,45,3,1,0.0,1,0.4,0,2.0,1.2583690999999817,3.0,0.12932200000000194,0,1,0,0,0,0,0,0,0,0,1,0,0,0,0,0,0,0,0,0,4888.981375358167,0.5670356501227287,0.22681426004909147,1.0,3.0,2,24,63,0
47,12,21555,1,cdt,1,/content/G/Shareddrives/LC-Aging/Young Adult - Behavioral + Pupillometry Study/Data Collection/metacog YA/subject12_CD_session1_run1_8_31_10.mat,48.0,5,1,1,0.0,1,0.4,0,2.0,1.1644016999999849,3.0,0.5291859000000159,0,1,0,0,0,0,0,0,0,0,1,0,0,0,0,0,0,0,0,0,5299.919770773639,0.6146972594263094,0.24587890377052374,1.0,3.0,2,24,63,0
48,12,21555,1,cdt,1,/content/G/Shareddrives/LC-Aging/Young Adult - Behavioral + Pupillometry Study/Data Collection/metacog YA/subject12_CD_session1_run1_8_31_10.mat,49.0,0,0,0,0.0,1,0.4,1,2.0,0.9761058999999932,4.0,0.552828800000043,0,0,0,1,0,0,0,0,0,0,0,0,0,0,0,0,0,0,0,1,4859.166189111748,0.5635776141396136,0.22543104565584543,1.0,3.0,1,24,63,1
49,12,21555,1,cdt,1,/content/G/Shareddrives/LC-Aging/Young Adult - Behavioral + Pupillometry Study/Data Collection/metacog YA/subject12_CD_session1_run1_8_31_10.mat,50.0,0,0,0,0.0,0,0.05,1,2.0,1.105584199999953,4.0,0.5644442000000254,0,0,0,1,0,0,0,0,0,0,0,0,0,0,0,0,0,0,0,1,1281.4369627507162,1.1889927745309359,0.0594496387265468,1.0,3.0,1,24,63,1
50,12,21555,1,cdt,1,/content/G/Shareddrives/LC-Aging/Young Adult - Behavioral + Pupillometry Study/Data Collection/metacog YA/subject12_CD_session1_run1_8_31_10.mat,51.0,5,1,1,0.0,1,0.4,0,2.0,0.9645029999999224,4.0,0.1764488999999685,0,1,0,0,0,0,0,0,0,0,0,1,0,0,0,0,0,0,0,0,5531.382521489972,0.641542857978424,0.2566171431913696,1.0,3.0,1,24,63,1
51,12,21555,1,cdt,1,/content/G/Shareddrives/LC-Aging/Young Adult - Behavioral + Pupillometry Study/Data Collection/metacog YA/subject12_CD_session1_run1_8_31_10.mat,52.0,45,3,1,1.0,0,0.05,1,1.0,1.564203300000031,4.0,0.17637330000002294,1,0,0,0,0,0,0,1,0,0,0,0,0,0,0,0,0,0,0,0,973.6375358166189,0.9033983166936849,0.04516991583468424,1.0,3.0,1,24,63,1
52,12,21555,1,cdt,1,/content/G/Shareddrives/LC-Aging/Young Adult - Behavioral + Pupillometry Study/Data Collection/metacog YA/subject12_CD_session1_run1_8_31_10.mat,53.0,90,4,1,1.0,0,0.05,1,1.0,1.152562200000034,4.0,0.21184740000001057,1,0,0,0,0,0,0,1,0,0,0,0,0,0,0,0,0,0,0,0,981.4297994269341,0.9106284383455663,0.04553142191727832,1.0,3.0,1,24,63,1
53,12,21555,1,cdt,1,/content/G/Shareddrives/LC-Aging/Young Adult - Behavioral + Pupillometry Study/Data Collection/metacog YA/subject12_CD_session1_run1_8_31_10.mat,54.0,20,2,1,0.0,0,0.05,0,2.0,1.493682999999919,2.0,0.12946629999999004,0,1,0,0,0,0,0,0,0,1,0,0,0,0,0,0,0,0,0,0,1044.1189111747851,0.9687950927161078,0.04843975463580539,1.0,3.0,0,24,63,0
54,12,21555,1,cdt,1,/content/G/Shareddrives/LC-Aging/Young Adult - Behavioral + Pupillometry Study/Data Collection/metacog YA/subject12_CD_session1_run1_8_31_10.mat,55.0,5,1,1,0.0,0,0.05,0,2.0,1.4467289000000392,4.0,0.36446440000008806,0,1,0,0,0,0,0,0,0,0,0,1,0,0,0,0,0,0,0,0,927.5744985673352,0.8606583146066669,0.04303291573033335,1.0,3.0,1,24,63,1
55,12,21555,1,cdt,1,/content/G/Shareddrives/LC-Aging/Young Adult - Behavioral + Pupillometry Study/Data Collection/metacog YA/subject12_CD_session1_run1_8_31_10.mat,56.0,20,2,1,0.0,0,0.05,0,2.0,1.3761126000000559,2.0,0.1999243000000206,0,1,0,0,0,0,0,0,0,1,0,0,0,0,0,0,0,0,0,0,879.5458452722063,0.816094498048904,0.0408047249024452,1.0,3.0,0,24,63,0
56,12,21555,1,cdt,1,/content/G/Shareddrives/LC-Aging/Young Adult - Behavioral + Pupillometry Study/Data Collection/metacog YA/subject12_CD_session1_run1_8_31_10.mat,57.0,45,3,1,1.0,1,0.4,1,1.0,1.9170344999999998,1.0,0.19988630000000285,1,0,0,0,1,0,0,0,0,0,0,0,0,0,0,0,0,0,0,0,5183.21346704871,0.601161385647032,0.24046455425881283,1.0,3.0,0,24,63,0
57,12,21555,1,cdt,1,/content/G/Shareddrives/LC-Aging/Young Adult - Behavioral + Pupillometry Study/Data Collection/metacog YA/subject12_CD_session1_run1_8_31_10.mat,58.0,0,0,0,0.0,1,0.4,1,2.0,1.0118947999999364,3.0,0.011580300000105126,0,0,0,1,0,0,0,0,0,0,0,0,0,0,0,0,0,0,1,0,5305.5257879656165,0.6153474585903058,0.2461389834361223,1.0,3.0,2,24,63,0
58,12,21555,1,cdt,1,/content/G/Shareddrives/LC-Aging/Young Adult - Behavioral + Pupillometry Study/Data Collection/metacog YA/subject12_CD_session1_run1_8_31_10.mat,59.0,5,1,1,0.0,0,0.05,0,2.0,0.987988200000018,4.0,0.12967940000010003,0,1,0,0,0,0,0,0,0,0,0,1,0,0,0,0,0,0,0,0,1020.6919770773638,0.9470582018811077,0.04735291009405539,1.0,3.0,1,24,63,1
59,12,21555,1,cdt,1,/content/G/Shareddrives/LC-Aging/Young Adult - Behavioral + Pupillometry Study/Data Collection/metacog YA/subject12_CD_session1_run1_8_31_10.mat,60.0,45,3,1,0.0,0,0.05,0,2.0,1.493588700000032,2.0,0.058806099999969774,0,1,0,0,0,0,0,0,0,1,0,0,0,0,0,0,0,0,0,0,995.2808022922636,0.9234802155344594,0.04617401077672297,1.0,3.0,0,24,63,0
60,12,21555,1,cdt,1,/content/G/Shareddrives/LC-Aging/Young Adult - Behavioral + Pupillometry Study/Data Collection/metacog YA/subject12_CD_session1_run1_8_31_10.mat,61.0,20,2,1,1.0,0,0.05,1,1.0,1.6935384999999314,2.0,0.3410877999999684,1,0,0,0,0,1,0,0,0,0,0,0,0,0,0,0,0,0,0,0,913.8180515759312,0.8478942719331304,0.042394713596656516,1.0,3.0,0,24,63,0
61,12,21555,1,cdt,1,/content/G/Shareddrives/LC-Aging/Young Adult - Behavioral + Pupillometry Study/Data Collection/metacog YA/subject12_CD_session1_run1_8_31_10.mat,62.0,90,4,1,1.0,1,0.4,1,1.0,1.7523596999999427,2.0,0.14111650000018017,1,0,0,0,0,1,0,0,0,0,0,0,0,0,0,0,0,0,0,0,5022.747851002865,0.5825502030854633,0.23302008123418533,1.0,3.0,0,24,63,0
62,12,21555,1,cdt,1,/content/G/Shareddrives/LC-Aging/Young Adult - Behavioral + Pupillometry Study/Data Collection/metacog YA/subject12_CD_session1_run1_8_31_10.mat,63.0,45,3,1,0.0,1,0.4,0,2.0,1.340796500000124,2.0,0.011720900000000256,0,1,0,0,0,0,0,0,0,1,0,0,0,0,0,0,0,0,0,0,5854.732091690545,0.6790457076885346,0.2716182830754138,1.0,3.0,0,24,63,0
63,12,21555,1,cdt,1,/content/G/Shareddrives/LC-Aging/Young Adult - Behavioral + Pupillometry Study/Data Collection/metacog YA/subject12_CD_session1_run1_8_31_10.mat,64.0,45,3,1,1.0,0,0.05,1,1.0,1.2467059000000518,4.0,0.3173927000000276,1,0,0,0,0,0,0,1,0,0,0,0,0,0,0,0,0,0,0,0,872.7005730659026,0.8097430508614267,0.040487152543071336,1.0,3.0,1,24,63,1
64,12,21555,1,cdt,1,/content/G/Shareddrives/LC-Aging/Young Adult - Behavioral + Pupillometry Study/Data Collection/metacog YA/subject12_CD_session1_run1_8_31_10.mat,65.0,20,2,1,1.0,1,0.4,1,1.0,1.1526128999998946,3.0,0.48173339999993914,1,0,0,0,0,0,1,0,0,0,0,0,0,0,0,0,0,0,0,0,5655.116045845272,0.6558937654657008,0.26235750618628034,1.0,3.0,2,24,63,0
65,12,21555,1,cdt,1,/content/G/Shareddrives/LC-Aging/Young Adult - Behavioral + Pupillometry Study/Data Collection/metacog YA/subject12_CD_session1_run1_8_31_10.mat,66.0,20,2,1,0.0,0,0.05,0,2.0,1.223149800000101,3.0,0.3058891999999105,0,1,0,0,0,0,0,0,0,0,1,0,0,0,0,0,0,0,0,0,934.8022922636103,0.8673646877880866,0.04336823438940433,1.0,3.0,2,24,63,0
66,12,21555,1,cdt,1,/content/G/Shareddrives/LC-Aging/Young Adult - Behavioral + Pupillometry Study/Data Collection/metacog YA/subject12_CD_session1_run1_8_31_10.mat,67.0,20,2,1,1.0,1,0.4,1,1.0,1.8112588999999844,2.0,0.08235740000009173,1,0,0,0,0,1,0,0,0,0,0,0,0,0,0,0,0,0,0,0,5557.800859598854,0.6446069194617089,0.25784276778468357,1.0,3.0,0,24,63,0
67,12,21555,1,cdt,1,/content/G/Shareddrives/LC-Aging/Young Adult - Behavioral + Pupillometry Study/Data Collection/metacog YA/subject12_CD_session1_run1_8_31_10.mat,68.0,0,0,0,0.0,1,0.4,1,2.0,2.1992791999998644,2.0,0.5762756999999965,0,0,0,1,0,0,0,0,0,0,0,0,0,0,0,0,0,1,0,0,4735.89111747851,0.549279879085886,0.21971195163435445,1.0,3.0,0,24,63,0
68,12,21555,1,cdt,1,/content/G/Shareddrives/LC-Aging/Young Adult - Behavioral + Pupillometry Study/Data Collection/metacog YA/subject12_CD_session1_run1_8_31_10.mat,69.0,90,4,1,1.0,1,0.4,1,1.0,0.8703114999998434,4.0,0.1761641000000509,1,0,0,0,0,0,0,1,0,0,0,0,0,0,0,0,0,0,0,0,5885.700573065903,0.6826375055747974,0.27305500222991896,1.0,3.0,1,24,63,1
69,12,21555,1,cdt,1,/content/G/Shareddrives/LC-Aging/Young Adult - Behavioral + Pupillometry Study/Data Collection/metacog YA/subject12_CD_session1_run1_8_31_10.mat,70.0,45,3,1,1.0,0,0.05,1,1.0,1.5761645999998564,2.0,0.03506259999994654,1,0,0,0,0,1,0,0,0,0,0,0,0,0,0,0,0,0,0,0,1410.432664756447,1.3086825931398254,0.06543412965699127,1.0,3.0,0,24,63,0
70,12,21555,1,cdt,1,/content/G/Shareddrives/LC-Aging/Young Adult - Behavioral + Pupillometry Study/Data Collection/metacog YA/subject12_CD_session1_run1_8_31_10.mat,71.0,45,3,1,1.0,1,0.4,1,1.0,1.7994873000000098,4.0,0.6821211000001313,1,0,0,0,0,0,0,1,0,0,0,0,0,0,0,0,0,0,0,0,5407.681948424069,0.6271957722598085,0.2508783089039234,1.0,3.0,1,24,63,1
71,12,21555,1,cdt,1,/content/G/Shareddrives/LC-Aging/Young Adult - Behavioral + Pupillometry Study/Data Collection/metacog YA/subject12_CD_session1_run1_8_31_10.mat,72.0,45,3,1,1.0,1,0.4,1,1.0,1.3289796999999908,4.0,0.10595749999993131,1,0,0,0,0,0,0,1,0,0,0,0,0,0,0,0,0,0,0,0,5564.511461318051,0.6453852309577883,0.2581540923831153,1.0,3.0,1,24,63,1
72,12,21555,1,cdt,1,/content/G/Shareddrives/LC-Aging/Young Adult - Behavioral + Pupillometry Study/Data Collection/metacog YA/subject12_CD_session1_run1_8_31_10.mat,73.0,5,1,1,0.0,0,0.05,0,2.0,1.8816861000000245,3.0,0.23517809999998462,0,1,0,0,0,0,0,0,0,0,1,0,0,0,0,0,0,0,0,0,965.1776504297994,0.8955487361909529,0.04477743680954764,1.0,3.0,2,24,63,0
73,12,21555,1,cdt,1,/content/G/Shareddrives/LC-Aging/Young Adult - Behavioral + Pupillometry Study/Data Collection/metacog YA/subject12_CD_session1_run1_8_31_10.mat,74.0,0,0,0,0.0,0,0.05,1,2.0,1.3172974999999951,3.0,0.011831900000061069,0,0,0,1,0,0,0,0,0,0,0,0,0,0,0,0,0,0,1,0,751.4226361031518,0.6972142297408043,0.034860711487040216,1.0,3.0,2,24,63,0
74,12,21555,1,cdt,1,/content/G/Shareddrives/LC-Aging/Young Adult - Behavioral + Pupillometry Study/Data Collection/metacog YA/subject12_CD_session1_run1_8_31_10.mat,75.0,20,2,1,1.0,1,0.4,1,1.0,1.5524141000000782,3.0,0.19999040000016066,1,0,0,0,0,0,1,0,0,0,0,0,0,0,0,0,0,0,0,0,5492.33094555874,0.6370135636231431,0.2548054254492572,1.0,3.0,2,24,63,0
75,12,21555,1,cdt,1,/content/G/Shareddrives/LC-Aging/Young Adult - Behavioral + Pupillometry Study/Data Collection/metacog YA/subject12_CD_session1_run1_8_31_10.mat,76.0,0,0,0,0.0,0,0.05,1,2.0,1.7289776000000074,3.0,0.011790400000109003,0,0,0,1,0,0,0,0,0,0,0,0,0,0,0,0,0,0,1,0,1139.6174785100286,1.0574042946045266,0.05287021473022633,1.0,3.0,2,24,63,0
76,12,21555,1,cdt,1,/content/G/Shareddrives/LC-Aging/Young Adult - Behavioral + Pupillometry Study/Data Collection/metacog YA/subject12_CD_session1_run1_8_31_10.mat,77.0,0,0,0,0.0,1,0.4,1,2.0,0.9289931999999226,3.0,0.31743409999990035,0,0,0,1,0,0,0,0,0,0,0,0,0,0,0,0,0,0,1,0,5519.621776504298,0.6401788188940267,0.2560715275576107,1.0,3.0,2,24,63,0
77,12,21555,1,cdt,1,/content/G/Shareddrives/LC-Aging/Young Adult - Behavioral + Pupillometry Study/Data Collection/metacog YA/subject12_CD_session1_run1_8_31_10.mat,78.0,45,3,1,0.0,1,0.4,0,2.0,1.6935960999999224,3.0,0.14115820000006352,0,1,0,0,0,0,0,0,0,0,1,0,0,0,0,0,0,0,0,0,5381.362464183381,0.6241431760825077,0.24965727043300306,1.0,3.0,2,24,63,0
78,12,21555,1,cdt,1,/content/G/Shareddrives/LC-Aging/Young Adult - Behavioral + Pupillometry Study/Data Collection/metacog YA/subject12_CD_session1_run1_8_31_10.mat,79.0,0,0,0,0.0,1,0.4,1,2.0,0.893856100000221,3.0,0.2352038999999877,0,0,0,1,0,0,0,0,0,0,0,0,0,0,0,0,0,0,1,0,5194.942693409742,0.6025217691266228,0.24100870765064913,1.0,3.0,2,24,63,0
79,12,21555,1,cdt,1,/content/G/Shareddrives/LC-Aging/Young Adult - Behavioral + Pupillometry Study/Data Collection/metacog YA/subject12_CD_session1_run1_8_31_10.mat,80.0,45,3,1,1.0,1,0.4,1,1.0,1.7876141000001553,3.0,0.47032579999995505,1,0,0,0,0,0,1,0,0,0,0,0,0,0,0,0,0,0,0,0,5728.154727793696,0.6643649649493965,0.26574598597975857,1.0,3.0,2,24,63,0
80,12,21555,1,cdt,1,/content/G/Shareddrives/LC-Aging/Young Adult - Behavioral + Pupillometry Study/Data Collection/metacog YA/subject12_CD_session1_run1_8_31_10.mat,81.0,45,3,1,1.0,0,0.05,1,1.0,1.6230497999999898,2.0,0.5879170000000613,1,0,0,0,0,1,0,0,0,0,0,0,0,0,0,0,0,0,0,0,1468.3810888252149,1.3624505579449917,0.06812252789724958,1.0,3.0,0,24,63,0
81,12,21555,1,cdt,1,/content/G/Shareddrives/LC-Aging/Young Adult - Behavioral + Pupillometry Study/Data Collection/metacog YA/subject12_CD_session1_run1_8_31_10.mat,82.0,5,1,1,0.0,0,0.05,0,2.0,1.8936074000000644,2.0,0.058817100000169376,0,1,0,0,0,0,0,0,0,1,0,0,0,0,0,0,0,0,0,0,1186.336676217765,1.1007531210556853,0.055037656052784274,1.0,3.0,0,24,63,0
82,12,21555,1,cdt,1,/content/G/Shareddrives/LC-Aging/Young Adult - Behavioral + Pupillometry Study/Data Collection/metacog YA/subject12_CD_session1_run1_8_31_10.mat,83.0,0,0,0,0.0,0,0.05,1,2.0,1.0819622999999865,4.0,0.05879540000000816,0,0,0,1,0,0,0,0,0,0,0,0,0,0,0,0,0,0,0,1,1070.3452722063037,0.9931294569299964,0.04965647284649982,1.0,3.0,1,24,63,1
83,12,21555,1,cdt,1,/content/G/Shareddrives/LC-Aging/Young Adult - Behavioral + Pupillometry Study/Data Collection/metacog YA/subject12_CD_session1_run1_8_31_10.mat,84.0,90,4,1,1.0,0,0.05,1,1.0,1.023274899999933,4.0,0.04704349999997248,1,0,0,0,0,0,0,1,0,0,0,0,0,0,0,0,0,0,0,0,1102.2636103151863,1.0227451731061807,0.051137258655309034,1.0,3.0,1,24,63,1
84,12,21555,1,cdt,1,/content/G/Shareddrives/LC-Aging/Young Adult - Behavioral + Pupillometry Study/Data Collection/metacog YA/subject12_CD_session1_run1_8_31_10.mat,85.0,90,4,1,1.0,1,0.4,1,1.0,1.5760475999998107,3.0,0.1999465000001237,1,0,0,0,0,0,1,0,0,0,0,0,0,0,0,0,0,0,0,0,4974.838108882522,0.576993517615695,0.23079740704627796,1.0,3.0,2,24,63,0
85,12,21555,1,cdt,1,/content/G/Shareddrives/LC-Aging/Young Adult - Behavioral + Pupillometry Study/Data Collection/metacog YA/subject12_CD_session1_run1_8_31_10.mat,86.0,45,3,1,1.0,0,0.05,1,1.0,1.3877995999998802,4.0,0.011297999999897002,1,0,0,0,0,0,0,1,0,0,0,0,0,0,0,0,0,0,0,0,1463.1661891117478,1.3576118664919952,0.06788059332459977,1.0,3.0,1,24,63,1
86,12,21555,1,cdt,1,/content/G/Shareddrives/LC-Aging/Young Adult - Behavioral + Pupillometry Study/Data Collection/metacog YA/subject12_CD_session1_run1_8_31_10.mat,87.0,90,4,1,1.0,0,0.05,1,1.0,1.3291137999999592,4.0,0.011860300000080315,1,0,0,0,0,0,0,1,0,0,0,0,0,0,0,0,0,0,0,0,1127.67335243553,1.0463218301419903,0.05231609150709951,1.0,3.0,1,24,63,1
87,12,21555,1,cdt,1,/content/G/Shareddrives/LC-Aging/Young Adult - Behavioral + Pupillometry Study/Data Collection/metacog YA/subject12_CD_session1_run1_8_31_10.mat,88.0,45,3,1,1.0,0,0.05,1,1.0,1.3878809999998794,3.0,0.09408819999998741,1,0,0,0,0,0,1,0,0,0,0,0,0,0,0,0,0,0,0,0,1102.6676217765043,1.0231200387627042,0.05115600193813521,1.0,3.0,2,24,63,0
88,12,21555,1,cdt,1,/content/G/Shareddrives/LC-Aging/Young Adult - Behavioral + Pupillometry Study/Data Collection/metacog YA/subject12_CD_session1_run1_8_31_10.mat,89.0,90,4,1,0.0,0,0.05,0,2.0,2.1757926999998745,2.0,0.10586779999994178,0,1,0,0,0,0,0,0,0,1,0,0,0,0,0,0,0,0,0,0,916.8151862464183,0.8506751902077646,0.04253375951038823,1.0,3.0,0,24,63,0
89,12,21555,1,cdt,1,/content/G/Shareddrives/LC-Aging/Young Adult - Behavioral + Pupillometry Study/Data Collection/metacog YA/subject12_CD_session1_run1_8_31_10.mat,90.0,90,4,1,1.0,1,0.4,1,1.0,1.0349778000002061,4.0,0.10582810000005338,1,0,0,0,0,0,0,1,0,0,0,0,0,0,0,0,0,0,0,0,5201.21776504298,0.6032495668108304,0.2412998267243322,1.0,3.0,1,24,63,1
90,12,21555,1,cdt,1,/content/G/Shareddrives/LC-Aging/Young Adult - Behavioral + Pupillometry Study/Data Collection/metacog YA/subject12_CD_session1_run1_8_31_10.mat,91.0,5,1,1,0.0,0,0.05,0,2.0,1.09372929999995,3.0,0.14089449999983117,0,1,0,0,0,0,0,0,0,0,1,0,0,0,0,0,0,0,0,0,1137.4627507163323,1.0554050111030686,0.052770250555153435,1.0,3.0,2,24,63,0
91,12,21555,1,cdt,1,/content/G/Shareddrives/LC-Aging/Young Adult - Behavioral + Pupillometry Study/Data Collection/metacog YA/subject12_CD_session1_run1_8_31_10.mat,92.0,20,2,1,1.0,0,0.05,1,1.0,1.8815225000000737,3.0,0.10577049999983501,1,0,0,0,0,0,1,0,0,0,0,0,0,0,0,0,0,0,0,0,941.823782234957,0.8738796402087283,0.043693982010436415,1.0,3.0,2,24,63,0
92,12,21555,1,cdt,1,/content/G/Shareddrives/LC-Aging/Young Adult - Behavioral + Pupillometry Study/Data Collection/metacog YA/subject12_CD_session1_run1_8_31_10.mat,93.0,90,4,1,1.0,1,0.4,1,1.0,1.082010900000114,4.0,0.29393899999990936,1,0,0,0,0,0,0,1,0,0,0,0,0,0,0,0,0,0,0,0,5233.216332378223,0.6069608365087246,0.24278433460348983,1.0,3.0,1,24,63,1
93,12,21555,1,cdt,1,/content/G/Shareddrives/LC-Aging/Young Adult - Behavioral + Pupillometry Study/Data Collection/metacog YA/subject12_CD_session1_run1_8_31_10.mat,94.0,20,2,1,1.0,0,0.05,1,1.0,1.5877490999998827,2.0,0.4822864000000209,1,0,0,0,0,1,0,0,0,0,0,0,0,0,0,0,0,0,0,0,1370.0100286532952,1.2711760878249085,0.06355880439124542,1.0,3.0,0,24,63,0
94,12,21555,1,cdt,1,/content/G/Shareddrives/LC-Aging/Young Adult - Behavioral + Pupillometry Study/Data Collection/metacog YA/subject12_CD_session1_run1_8_31_10.mat,95.0,0,0,0,0.0,0,0.05,1,2.0,1.2584653999999773,3.0,0.058811000000105196,0,0,0,1,0,0,0,0,0,0,0,0,0,0,0,0,0,0,1,0,1123.442693409742,1.042396375235205,0.052119818761760243,1.0,3.0,2,24,63,0
95,12,21555,1,cdt,1,/content/G/Shareddrives/LC-Aging/Young Adult - Behavioral + Pupillometry Study/Data Collection/metacog YA/subject12_CD_session1_run1_8_31_10.mat,96.0,0,0,0,0.0,0,0.05,1,2.0,1.0702733000000535,3.0,0.0823685000000296,0,0,0,1,0,0,0,0,0,0,0,0,0,0,0,0,0,0,1,0,1020.461318051576,0.9468441828360714,0.04734220914180357,1.0,3.0,2,24,63,0
96,12,21555,1,cdt,1,/content/G/Shareddrives/LC-Aging/Young Adult - Behavioral + Pupillometry Study/Data Collection/metacog YA/subject12_CD_session1_run1_8_31_10.mat,97.0,45,3,1,1.0,1,0.4,1,1.0,1.2701457999999093,3.0,0.011757799999941199,1,0,0,0,0,0,1,0,0,0,0,0,0,0,0,0,0,0,0,0,5633.13323782235,0.6533441472770064,0.2613376589108026,1.0,3.0,2,24,63,0
97,12,21555,1,cdt,1,/content/G/Shareddrives/LC-Aging/Young Adult - Behavioral + Pupillometry Study/Data Collection/metacog YA/subject12_CD_session1_run1_8_31_10.mat,98.0,0,0,0,0.0,1,0.4,1,2.0,1.1291177999999036,3.0,0.34103040000013607,0,0,0,1,0,0,0,0,0,0,0,0,0,0,0,0,0,0,1,0,5624.702005730659,0.6523662729912618,0.2609465091965047,1.0,3.0,2,24,63,0
98,12,21555,1,cdt,1,/content/G/Shareddrives/LC-Aging/Young Adult - Behavioral + Pupillometry Study/Data Collection/metacog YA/subject12_CD_session1_run1_8_31_10.mat,99.0,5,1,1,0.0,0,0.05,0,2.0,1.5408614000000398,3.0,0.17634180000004562,0,1,0,0,0,0,0,0,0,0,1,0,0,0,0,0,0,0,0,0,1029.8667621776503,0.9555711084923687,0.04777855542461843,1.0,3.0,2,24,63,0
99,12,21555,1,cdt,1,/content/G/Shareddrives/LC-Aging/Young Adult - Behavioral + Pupillometry Study/Data Collection/metacog YA/subject12_CD_session1_run1_8_31_10.mat,100.0,20,2,1,1.0,1,0.4,1,1.0,1.4819213999999192,2.0,0.011810799999921073,1,0,0,0,0,1,0,0,0,0,0,0,0,0,0,0,0,0,0,0,5434.012893982808,0.630249697747948,0.25209987909917925,1.0,3.0,0,24,63,0
100,12,21555,1,cdt,1,/content/G/Shareddrives/LC-Aging/Young Adult - Behavioral + Pupillometry Study/Data Collection/metacog YA/subject12_CD_session1_run1_8_31_10.mat,101.0,20,2,1,1.0,0,0.05,1,1.0,2.481792799999994,2.0,0.25877220000006673,1,0,0,0,0,1,0,0,0,0,0,0,0,0,0,0,0,0,0,0,1038.1776504297993,0.9632824406678723,0.04816412203339361,1.0,3.0,0,24,63,0
101,12,21555,1,cdt,1,/content/G/Shareddrives/LC-Aging/Young Adult - Behavioral + Pupillometry Study/Data Collection/metacog YA/subject12_CD_session1_run1_8_31_10.mat,102.0,90,4,1,1.0,1,0.4,1,1.0,0.8585815000001276,4.0,0.2587452000000212,1,0,0,0,0,0,0,1,0,0,0,0,0,0,0,0,0,0,0,0,5664.259312320917,0.6569542231873019,0.2627816892749208,1.0,3.0,1,24,63,1
102,12,21555,1,cdt,1,/content/G/Shareddrives/LC-Aging/Young Adult - Behavioral + Pupillometry Study/Data Collection/metacog YA/subject12_CD_session1_run1_8_31_10.mat,103.0,20,2,1,0.0,0,0.05,0,2.0,1.199788099999978,3.0,0.14117820000001302,0,1,0,0,0,0,0,0,0,0,1,0,0,0,0,0,0,0,0,0,1601.3008595988538,1.4857813589411772,0.07428906794705886,1.0,3.0,2,24,63,0
103,12,21555,1,cdt,1,/content/G/Shareddrives/LC-Aging/Young Adult - Behavioral + Pupillometry Study/Data Collection/metacog YA/subject12_CD_session1_run1_8_31_10.mat,104.0,20,2,1,0.0,0,0.05,0,2.0,1.9170642999999927,3.0,0.08231709999995473,0,1,0,0,0,0,0,0,0,0,1,0,0,0,0,0,0,0,0,0,1094.3997134670487,1.0154485859123625,0.05077242929561813,1.0,3.0,2,24,63,0
